% Mike Stanley's IMU Data Logger
% Date & Time   Saturday 19 February 2011  -  04:31:43 PM
% MagX, AccX and GyroX values are centered at 0 LSB
% Accelerometer Range = +/- 6g
% Gyroscope     Range = +/- 2000 degrees/second
% Magnetometer  Range = +/- 200uT
% Recorder      Michael Stanley
% Comments      Gilbert and McKellips to garage.    Sensor lying on back seat of 97 Camry.  This run is intended to gather data representative of sensor data associated with City driving.  Street conditions: Wet
% SampleNumber MagX MagY MagZ AccX AccY AccZ GyroR GyroP GyroY LButton RButton
1 234 -497 211 -148 -62 290 -520 -535 -532 0 0 
2 225 -481 224 -118 -102 327 -521 -534 -531 0 0 
3 226 -479 240 -129 -98 300 -514 -538 -530 0 0 
4 229 -486 253 -126 -64 288 -516 -533 -530 0 0 
5 240 -501 252 -132 -111 325 -514 -535 -531 0 0 
6 253 -517 251 -132 -95 320 -512 -537 -530 0 0 
7 255 -522 245 -107 -83 319 -514 -534 -531 0 0 
8 258 -522 240 -110 -87 336 -512 -536 -530 0 0 
9 259 -527 238 -133 -73 315 -519 -535 -530 0 0 
10 263 -540 233 -129 -83 308 -522 -538 -531 0 0 
11 265 -545 227 -125 -88 316 -518 -535 -531 0 0 
12 266 -539 218 -111 -71 299 -517 -534 -531 0 0 
13 273 -535 209 -151 -66 295 -514 -538 -529 0 0 
14 261 -527 210 -136 -80 286 -521 -535 -533 0 0 
15 252 -512 215 -112 -74 311 -512 -535 -530 0 0 
16 254 -512 220 -136 -99 311 -516 -535 -530 0 0 
17 253 -515 217 -142 -69 308 -514 -537 -531 0 0 
18 257 -522 209 -105 -73 318 -517 -534 -531 0 0 
19 247 -507 206 -124 -97 329 -513 -537 -530 0 0 
20 245 -492 217 -129 -69 307 -515 -535 -531 0 0 
21 230 -481 230 -109 -78 318 -521 -535 -532 0 0 
22 230 -474 246 -126 -84 309 -515 -536 -530 0 0 
23 244 -486 257 -134 -84 315 -517 -535 -530 0 0 
24 246 -500 257 -123 -79 316 -513 -535 -530 0 0 
25 255 -511 251 -126 -85 320 -513 -535 -529 0 0 
26 258 -524 240 -122 -69 299 -519 -535 -530 0 0 
27 262 -520 239 -114 -74 298 -523 -534 -530 0 0 
28 265 -525 237 -134 -90 287 -525 -537 -531 0 0 
29 267 -531 232 -103 -85 295 -517 -533 -532 0 0 
30 269 -537 224 -94 -78 287 -515 -533 -529 0 0 
31 269 -541 215 -150 -96 300 -515 -535 -529 0 0 
32 270 -535 210 -141 -88 320 -509 -535 -531 0 0 
33 263 -517 214 -106 -78 307 -506 -533 -530 0 0 
34 255 -512 222 -137 -77 341 -514 -535 -528 0 0 
35 252 -512 222 -136 -79 330 -509 -534 -530 0 0 
36 253 -517 215 -127 -83 338 -518 -535 -530 0 0 
37 255 -515 207 -117 -87 323 -521 -535 -531 0 0 
38 242 -498 210 -115 -73 320 -524 -533 -530 0 0 
39 242 -498 210 -115 -73 320 -524 -533 -530 0 0 
40 235 -484 223 -137 -62 290 -522 -535 -531 0 0 
41 234 -481 239 -131 -81 302 -520 -534 -532 0 0 
42 232 -482 254 -119 -86 311 -513 -535 -530 0 0 
43 245 -493 257 -127 -54 299 -512 -533 -529 0 0 
44 251 -511 254 -125 -68 311 -516 -535 -530 0 0 
45 259 -521 243 -127 -86 322 -516 -533 -531 0 0 
46 260 -529 240 -126 -70 315 -518 -534 -530 0 0 
47 260 -528 240 -130 -89 319 -519 -533 -531 0 0 
48 261 -532 236 -108 -71 300 -516 -533 -530 0 0 
49 265 -538 231 -131 -64 292 -523 -534 -530 0 0 
50 271 -541 223 -140 -86 311 -518 -534 -530 0 0 
51 271 -537 215 -112 -93 322 -511 -533 -530 0 0 
52 262 -520 213 -127 -61 316 -510 -534 -529 0 0 
53 257 -513 218 -126 -76 313 -516 -534 -531 0 0 
54 252 -513 224 -135 -93 341 -518 -535 -530 0 0 
55 251 -517 220 -118 -81 319 -515 -533 -530 0 0 
56 251 -512 209 -131 -74 323 -516 -536 -529 0 0 
57 247 -501 208 -116 -96 319 -520 -534 -530 0 0 
58 234 -491 219 -111 -80 311 -517 -533 -530 0 0 
59 233 -475 234 -134 -73 303 -522 -534 -529 0 0 
60 232 -473 249 -148 -96 328 -513 -535 -531 0 0 
61 242 -484 259 -114 -94 351 -510 -533 -530 0 0 
62 249 -500 259 -139 -66 320 -508 -535 -529 0 0 
63 255 -515 250 -146 -65 318 -520 -534 -530 0 0 
64 259 -523 244 -103 -76 310 -525 -534 -531 0 0 
65 262 -523 242 -123 -104 337 -527 -533 -530 0 0 
66 262 -529 243 -136 -112 333 -516 -534 -531 0 0 
67 263 -534 235 -130 -73 311 -510 -535 -528 0 0 
68 267 -539 228 -118 -84 309 -515 -533 -530 0 0 
69 267 -532 216 -127 -93 329 -518 -535 -529 0 0 
70 263 -527 212 -118 -76 324 -517 -533 -530 0 0 
71 256 -518 216 -138 -80 330 -509 -535 -529 0 0 
72 254 -513 227 -145 -121 338 -520 -535 -531 0 0 
73 250 -516 220 -113 -80 326 -512 -533 -530 0 0 
74 253 -513 214 -155 -93 329 -523 -534 -529 0 0 
75 248 -502 208 -165 -87 352 -512 -535 -531 0 0 
76 238 -486 218 -120 -95 341 -513 -533 -531 0 0 
77 230 -472 231 -128 -72 331 -520 -533 -529 0 0 
78 230 -474 249 -152 -73 324 -522 -536 -530 0 0 
79 243 -486 259 -148 -94 334 -520 -534 -532 0 0 
80 246 -505 257 -110 -67 311 -516 -534 -529 0 0 
81 254 -509 252 -146 -79 305 -526 -535 -529 0 0 
82 257 -519 247 -138 -81 333 -516 -533 -532 0 0 
83 258 -517 243 -139 -100 339 -513 -533 -529 0 0 
84 262 -526 241 -165 -86 335 -510 -537 -529 0 0 
85 261 -535 236 -111 -77 332 -515 -532 -532 0 0 
86 265 -535 223 -148 -92 318 -518 -536 -529 0 0 
87 268 -538 211 -143 -92 305 -533 -535 -531 0 0 
88 264 -532 208 -110 -44 270 -533 -535 -533 0 0 
89 255 -518 216 -132 -104 322 -533 -530 -530 0 0 
90 247 -517 224 -153 -133 345 -507 -535 -530 0 0 
91 253 -510 222 -145 -123 323 -500 -535 -530 0 0 
92 253 -514 214 -119 -71 310 -509 -532 -527 0 0 
93 249 -504 210 -158 -82 337 -515 -535 -528 0 0 
94 243 -486 218 -151 -119 354 -515 -534 -532 0 0 
95 229 -473 235 -117 -106 365 -510 -534 -530 0 0 
96 230 -476 249 -127 -98 341 -515 -535 -530 0 0 
97 235 -487 256 -136 -74 337 -522 -535 -530 0 0 
98 244 -501 256 -140 -76 314 -528 -535 -532 0 0 
99 252 -515 250 -144 -94 330 -521 -536 -530 0 0 
100 255 -517 244 -116 -90 310 -516 -533 -532 0 0 
101 256 -524 241 -129 -98 340 -512 -536 -529 0 0 
102 258 -531 240 -149 -87 326 -513 -534 -530 0 0 
103 262 -539 235 -139 -81 335 -517 -535 -530 0 0 
104 267 -541 221 -110 -91 346 -513 -533 -531 0 0 
105 272 -535 212 -153 -69 302 -522 -536 -529 0 0 
106 264 -532 212 -129 -51 293 -530 -536 -532 0 0 
107 252 -517 219 -97 -71 318 -518 -532 -532 0 0 
108 248 -512 223 -123 -134 352 -512 -536 -529 0 0 
109 251 -515 219 -132 -68 308 -507 -537 -530 0 0 
110 248 -517 208 -120 -43 303 -517 -533 -529 0 0 
111 245 -501 208 -145 -72 320 -525 -536 -531 0 0 
112 236 -485 220 -121 -73 312 -520 -536 -531 0 0 
113 229 -477 236 -112 -75 309 -522 -532 -531 0 0 
114 233 -474 251 -132 -99 333 -516 -538 -529 0 0 
115 239 -489 258 -131 -75 302 -518 -534 -531 0 0 
116 248 -509 252 -115 -65 306 -520 -534 -531 0 0 
117 263 -525 246 -133 -99 313 -519 -535 -531 0 0 
118 259 -531 241 -118 -76 316 -512 -534 -530 0 0 
119 260 -536 240 -129 -82 322 -514 -535 -530 0 0 
120 262 -538 235 -141 -93 326 -517 -536 -531 0 0 
121 265 -544 227 -122 -75 304 -519 -535 -530 0 0 
122 270 -541 219 -143 -97 314 -527 -535 -530 0 0 
123 271 -527 206 -137 -104 316 -518 -536 -532 0 0 
124 258 -515 212 -118 -80 299 -514 -535 -530 0 0 
125 251 -516 220 -136 -111 327 -516 -535 -530 0 0 
126 259 -520 219 -122 -83 318 -509 -535 -530 0 0 
127 250 -518 213 -121 -70 295 -521 -534 -529 0 0 
128 251 -511 206 -141 -118 343 -514 -536 -532 0 0 
129 241 -502 210 -134 -107 321 -518 -536 -531 0 0 
130 238 -483 225 -120 -56 289 -526 -535 -531 0 0 
131 238 -477 243 -132 -118 338 -517 -533 -532 0 0 
132 236 -489 253 -159 -125 343 -512 -537 -530 0 0 
133 246 -499 255 -128 -68 295 -517 -534 -531 0 0 
134 254 -517 248 -134 -88 332 -521 -534 -530 0 0 
135 258 -518 242 -113 -111 347 -512 -534 -532 0 0 
136 259 -526 241 -126 -81 315 -517 -535 -528 0 0 
137 262 -532 239 -122 -82 324 -522 -535 -532 0 0 
138 266 -544 232 -111 -87 317 -516 -535 -530 0 0 
139 268 -545 221 -129 -82 297 -525 -534 -531 0 0 
140 268 -540 210 -128 -61 304 -517 -534 -531 0 0 
141 262 -530 207 -146 -103 317 -521 -535 -531 0 0 
142 262 -517 217 -122 -94 328 -510 -534 -532 0 0 
143 252 -518 224 -96 -92 322 -512 -534 -529 0 0 
144 251 -515 212 -152 -78 314 -511 -535 -529 0 0 
145 252 -520 206 -115 -70 308 -522 -532 -532 0 0 
146 245 -500 209 -134 -73 313 -523 -538 -529 0 0 
147 233 -486 218 -111 -88 322 -522 -532 -532 0 0 
148 232 -475 236 -106 -81 306 -513 -535 -530 0 0 
149 237 -479 251 -148 -102 304 -520 -534 -529 0 0 
150 242 -497 256 -115 -72 308 -512 -535 -531 0 0 
151 251 -510 251 -118 -96 323 -513 -534 -529 0 0 
152 258 -518 244 -132 -101 351 -511 -534 -530 0 0 
153 266 -519 240 -140 -88 319 -515 -535 -529 0 0 
154 267 -524 238 -160 -91 338 -523 -536 -529 0 0 
155 263 -539 232 -109 -95 323 -522 -533 -532 0 0 
156 267 -541 225 -110 -69 307 -520 -534 -528 0 0 
157 275 -540 211 -130 -96 316 -525 -534 -531 0 0 
158 271 -532 207 -119 -76 307 -514 -534 -530 0 0 
159 261 -518 215 -131 -98 315 -514 -533 -530 0 0 
160 252 -512 220 -129 -83 337 -503 -536 -530 0 0 
161 249 -522 217 -121 -82 319 -514 -532 -530 0 0 
162 252 -517 205 -138 -67 322 -526 -535 -530 0 0 
163 250 -508 205 -127 -89 308 -528 -535 -531 0 0 
164 238 -492 216 -107 -95 330 -519 -531 -531 0 0 
165 230 -476 232 -117 -112 334 -510 -536 -529 0 0 
166 234 -482 249 -149 -66 297 -515 -536 -529 0 0 
167 239 -493 255 -99 -67 318 -519 -531 -533 0 0 
168 252 -508 253 -116 -111 347 -515 -535 -528 0 0 
169 258 -518 241 -138 -67 309 -517 -536 -531 0 0 
170 260 -523 237 -90 -60 301 -519 -533 -533 0 0 
171 261 -528 238 -131 -96 327 -523 -536 -527 0 0 
172 262 -534 233 -165 -118 333 -517 -536 -531 0 0 
173 269 -541 225 -99 -71 309 -515 -533 -532 0 0 
174 269 -543 212 -134 -99 326 -518 -537 -528 0 0 
175 265 -537 207 -150 -99 332 -514 -534 -530 0 0 
176 262 -520 214 -129 -97 338 -516 -534 -530 0 0 
177 253 -512 218 -135 -110 355 -514 -537 -531 0 0 
178 254 -514 216 -122 -78 333 -513 -533 -529 0 0 
179 251 -517 205 -147 -89 327 -524 -536 -529 0 0 
180 247 -507 204 -134 -95 327 -522 -537 -532 0 0 
181 238 -487 214 -106 -82 307 -522 -534 -531 0 0 
182 233 -478 233 -135 -94 314 -514 -534 -530 0 0 
183 238 -483 246 -134 -95 328 -517 -536 -530 0 0 
184 247 -494 250 -135 -79 307 -515 -536 -531 0 0 
185 254 -518 246 -120 -80 306 -523 -533 -530 0 0 
186 259 -523 240 -129 -81 314 -521 -536 -530 0 0 
187 260 -526 237 -121 -116 333 -513 -533 -532 0 0 
188 264 -528 235 -148 -102 338 -509 -537 -526 0 0 
189 266 -536 231 -135 -65 303 -525 -534 -532 0 0 
190 268 -541 220 -109 -86 326 -520 -534 -532 0 0 
191 269 -540 208 -118 -110 324 -520 -536 -529 0 0 
192 268 -529 204 -120 -69 298 -519 -534 -532 0 0 
193 264 -523 213 -119 -86 303 -518 -535 -530 0 0 
194 254 -517 218 -145 -102 309 -518 -534 -531 0 0 
195 253 -520 213 -105 -69 310 -512 -531 -531 0 0 
196 253 -512 204 -145 -117 336 -513 -536 -528 0 0 
197 246 -504 205 -163 -104 340 -507 -537 -530 0 0 
198 238 -482 216 -105 -52 296 -523 -532 -531 0 0 
199 231 -477 234 -126 -88 326 -527 -534 -530 0 0 
200 234 -487 249 -136 -120 332 -516 -535 -531 0 0 
201 245 -499 253 -121 -68 296 -521 -536 -530 0 0 
202 255 -513 247 -101 -65 287 -516 -534 -531 0 0 
203 259 -523 243 -131 -97 315 -520 -533 -529 0 0 
204 262 -534 236 -128 -107 323 -506 -535 -531 0 0 
205 264 -525 236 -142 -79 308 -515 -536 -529 0 0 
206 264 -547 229 -133 -69 315 -518 -533 -531 0 0 
207 268 -542 217 -113 -97 334 -517 -534 -529 0 0 
208 271 -537 209 -133 -86 301 -523 -534 -530 0 0 
209 264 -527 207 -130 -89 325 -519 -534 -529 0 0 
210 258 -516 213 -142 -102 328 -507 -536 -530 0 0 
211 258 -521 218 -120 -69 314 -516 -534 -529 0 0 
212 254 -515 212 -129 -67 308 -517 -533 -530 0 0 
213 255 -513 203 -143 -116 336 -520 -536 -530 0 0 
214 242 -497 206 -112 -58 290 -517 -536 -531 0 0 
215 235 -482 224 -104 -72 296 -521 -532 -530 0 0 
216 231 -476 240 -141 -94 308 -524 -538 -529 0 0 
217 240 -490 251 -108 -87 305 -519 -532 -533 0 0 
218 246 -514 252 -119 -105 324 -510 -535 -529 0 0 
219 257 -518 243 -151 -104 316 -510 -536 -529 0 0 
220 262 -530 238 -112 -68 298 -516 -533 -531 0 0 
221 262 -530 239 -123 -104 341 -524 -535 -530 0 0 
222 264 -533 235 -142 -124 343 -512 -536 -531 0 0 
223 269 -537 221 -134 -104 334 -510 -534 -530 0 0 
224 273 -538 213 -128 -63 292 -524 -535 -530 0 0 
225 271 -532 205 -143 -102 325 -525 -536 -532 0 0 
226 266 -524 210 -119 -113 350 -507 -534 -532 0 0 
227 256 -512 219 -120 -92 327 -510 -536 -529 0 0 
228 260 -521 215 -126 -70 330 -515 -535 -530 0 0 
229 253 -513 209 -110 -66 326 -516 -535 -531 0 0 
230 248 -513 204 -122 -98 336 -524 -536 -530 0 0 
231 241 -489 216 -114 -82 322 -517 -536 -531 0 0 
232 236 -487 234 -111 -71 307 -516 -534 -530 0 0 
233 238 -482 251 -131 -95 328 -526 -534 -530 0 0 
234 246 -496 253 -152 -103 320 -512 -536 -531 0 0 
235 256 -518 246 -132 -81 293 -515 -535 -529 0 0 
236 261 -522 239 -161 -66 274 -533 -537 -530 0 0 
237 269 -524 238 -152 -99 307 -525 -533 -532 0 0 
238 271 -531 237 -112 -122 319 -513 -534 -532 0 0 
239 272 -537 228 -109 -105 304 -512 -535 -529 0 0 
240 273 -544 220 -132 -82 330 -504 -534 -530 0 0 
241 271 -534 208 -116 -94 338 -503 -534 -529 0 0 
242 268 -526 209 -122 -88 337 -516 -534 -529 0 0 
243 256 -520 215 -112 -85 334 -520 -536 -531 0 0 
244 254 -518 217 -124 -84 327 -521 -535 -531 0 0 
245 258 -514 206 -130 -77 295 -530 -534 -530 0 0 
246 252 -510 203 -149 -76 280 -526 -535 -531 0 0 
247 248 -492 210 -156 -97 298 -522 -534 -531 0 0 
248 235 -481 227 -148 -89 302 -509 -534 -530 0 0 
249 237 -480 246 -124 -82 309 -509 -534 -530 0 0 
250 242 -493 254 -146 -72 315 -512 -534 -529 0 0 
251 252 -509 253 -137 -86 319 -513 -534 -531 0 0 
252 261 -515 242 -104 -84 337 -512 -534 -530 0 0 
253 269 -524 237 -122 -88 308 -517 -534 -529 0 0 
254 263 -525 235 -156 -65 289 -531 -535 -529 0 0 
255 268 -531 233 -137 -75 277 -534 -533 -534 0 0 
256 273 -546 220 -118 -131 341 -510 -533 -531 0 0 
257 274 -538 209 -128 -127 320 -504 -536 -529 0 0 
258 268 -524 207 -128 -65 286 -514 -533 -526 0 0 
259 266 -523 218 -159 -98 334 -515 -533 -531 0 0 
260 253 -519 219 -147 -121 341 -512 -536 -531 0 0 
261 256 -521 212 -109 -74 319 -513 -533 -530 0 0 
262 252 -516 203 -165 -79 322 -526 -534 -529 0 0 
263 250 -501 209 -164 -97 317 -516 -537 -531 0 0 
264 234 -485 225 -121 -88 305 -519 -532 -531 0 0 
265 235 -486 243 -136 -84 302 -520 -534 -529 0 0 
266 246 -499 255 -143 -112 331 -516 -534 -530 0 0 
267 252 -509 254 -127 -90 313 -512 -532 -530 0 0 
268 258 -523 244 -135 -104 342 -512 -533 -529 0 0 
269 260 -524 240 -139 -110 347 -509 -535 -529 0 0 
270 262 -526 237 -126 -88 330 -517 -533 -530 0 0 
271 271 -539 233 -114 -71 320 -522 -532 -530 0 0 
272 269 -546 220 -166 -114 335 -520 -537 -528 0 0 
273 269 -535 213 -141 -76 304 -518 -533 -531 0 0 
274 269 -527 207 -102 -82 318 -518 -532 -530 0 0 
275 260 -522 211 -163 -110 311 -517 -536 -527 0 0 
276 252 -514 218 -158 -61 301 -519 -535 -531 0 0 
277 255 -518 210 -121 -80 309 -518 -532 -531 0 0 
278 253 -511 202 -134 -86 310 -512 -538 -528 0 0 
279 243 -497 208 -102 -59 291 -520 -530 -532 0 0 
280 235 -479 226 -138 -77 329 -518 -536 -527 0 0 
281 231 -475 244 -116 -102 325 -507 -536 -532 0 0 
282 240 -487 251 -90 -66 328 -518 -531 -529 0 0 
283 248 -508 249 -117 -85 338 -517 -536 -529 0 0 
284 259 -517 241 -149 -86 313 -518 -535 -530 0 0 
285 265 -526 237 -135 -84 320 -525 -533 -530 0 0 
286 261 -524 234 -138 -117 341 -515 -536 -531 0 0 
287 267 -537 232 -128 -114 329 -513 -533 -529 0 0 
288 272 -543 222 -152 -88 321 -519 -536 -529 0 0 
289 268 -537 208 -150 -109 331 -513 -536 -531 0 0 
290 265 -531 209 -113 -101 327 -517 -533 -531 0 0 
291 257 -512 217 -153 -106 334 -515 -535 -529 0 0 
292 251 -516 220 -149 -114 340 -515 -535 -531 0 0 
293 252 -514 212 -127 -86 327 -515 -535 -530 0 0 
294 251 -518 202 -131 -86 319 -519 -534 -530 0 0 
295 247 -495 211 -136 -105 330 -520 -536 -530 0 0 
296 232 -475 230 -128 -88 317 -516 -534 -530 0 0 
297 235 -483 246 -135 -103 324 -516 -535 -529 0 0 
298 243 -489 254 -122 -98 332 -514 -535 -530 0 0 
299 251 -508 249 -124 -98 318 -519 -535 -530 0 0 
300 262 -522 240 -150 -87 314 -517 -535 -529 0 0 
301 259 -525 237 -118 -109 324 -520 -533 -531 0 0 
302 263 -528 236 -135 -107 336 -518 -536 -529 0 0 
303 263 -536 230 -134 -86 321 -512 -534 -531 0 0 
304 268 -536 217 -151 -101 335 -516 -537 -529 0 0 
305 270 -540 207 -138 -84 308 -525 -534 -531 0 0 
306 262 -530 205 -120 -69 323 -516 -535 -530 0 0 
307 256 -518 217 -142 -95 314 -521 -537 -530 0 0 
308 254 -517 215 -107 -55 292 -520 -534 -532 0 0 
309 254 -517 205 -107 -71 301 -521 -534 -528 0 0 
310 249 -506 202 -158 -112 326 -512 -537 -530 0 0 
311 239 -485 215 -108 -68 304 -513 -534 -531 0 0 
312 232 -479 232 -113 -57 309 -516 -535 -529 0 0 
313 235 -481 248 -138 -93 313 -521 -536 -530 0 0 
314 246 -498 251 -123 -58 288 -523 -535 -531 0 0 
315 256 -514 244 -123 -83 290 -525 -535 -531 0 0 
316 266 -526 237 -117 -93 298 -519 -536 -530 0 0 
317 263 -526 239 -126 -98 305 -514 -532 -530 0 0 
318 268 -529 232 -157 -128 350 -504 -536 -528 0 0 
319 267 -542 222 -106 -75 339 -502 -537 -530 0 0 
320 270 -545 213 -112 -52 299 -527 -534 -528 0 0 
321 268 -536 203 -134 -89 324 -529 -536 -532 0 0 
322 259 -523 209 -139 -128 343 -517 -538 -532 0 0 
323 259 -516 214 -123 -91 299 -513 -536 -530 0 0 
324 257 -525 208 -126 -80 323 -518 -534 -528 0 0 
325 254 -517 197 -150 -90 327 -512 -537 -531 0 0 
326 244 -498 201 -115 -80 317 -523 -534 -531 0 0 
327 237 -485 219 -127 -82 307 -521 -535 -530 0 0 
328 236 -479 236 -136 -102 320 -518 -537 -529 0 0 
329 243 -488 247 -120 -76 290 -521 -535 -530 0 0 
330 253 -510 243 -140 -88 311 -520 -536 -530 0 0 
331 264 -520 235 -130 -99 304 -518 -535 -530 0 0 
332 265 -528 233 -126 -89 298 -520 -536 -530 0 0 
333 271 -527 231 -113 -107 323 -516 -533 -531 0 0 
334 274 -534 223 -134 -110 318 -515 -536 -529 0 0 
335 275 -545 212 -123 -62 276 -523 -536 -531 0 0 
336 275 -542 202 -108 -82 285 -524 -534 -531 0 0 
337 275 -524 205 -128 -106 311 -518 -534 -530 0 0 
338 258 -517 213 -136 -120 326 -507 -535 -530 0 0 
339 256 -521 213 -138 -88 300 -509 -536 -528 0 0 
340 256 -522 203 -116 -67 299 -522 -532 -530 0 0 
341 249 -507 199 -118 -86 310 -525 -536 -529 0 0 
342 238 -492 212 -147 -132 329 -522 -535 -531 0 0 
343 235 -475 228 -113 -75 293 -511 -536 -531 0 0 
344 239 -492 247 -96 -65 264 -524 -532 -529 0 0 
345 246 -505 245 -154 -113 323 -520 -537 -529 0 0 
346 264 -519 240 -134 -106 295 -513 -533 -532 0 0 
347 264 -528 234 -133 -109 312 -519 -536 -529 0 0 
348 266 -529 231 -113 -104 305 -512 -532 -531 0 0 
349 268 -542 228 -150 -123 335 -519 -535 -528 0 0 
350 270 -545 220 -164 -104 328 -509 -536 -530 0 0 
351 270 -542 203 -115 -99 334 -515 -534 -530 0 0 
352 271 -525 201 -124 -84 305 -517 -536 -529 0 0 
353 259 -519 207 -135 -87 307 -527 -534 -529 0 0 
354 262 -513 209 -134 -109 321 -522 -534 -532 0 0 
355 258 -515 204 -136 -102 318 -510 -535 -528 0 0 
356 253 -507 195 -144 -82 279 -520 -536 -530 0 0 
357 245 -492 204 -127 -66 291 -522 -534 -530 0 0 
358 235 -476 224 -129 -121 323 -518 -534 -530 0 0 
359 238 -479 240 -146 -105 311 -514 -536 -529 0 0 
360 248 -500 247 -124 -67 288 -515 -536 -530 0 0 
361 258 -513 244 -121 -125 333 -519 -532 -531 0 0 
362 263 -528 235 -149 -111 327 -514 -537 -528 0 0 
363 264 -528 235 -144 -90 288 -518 -533 -531 0 0 
364 266 -539 229 -128 -113 327 -513 -535 -529 0 0 
365 269 -544 220 -138 -119 335 -512 -535 -529 0 0 
366 274 -542 209 -129 -96 317 -514 -534 -529 0 0 
367 270 -530 204 -133 -92 323 -525 -534 -530 0 0 
368 266 -520 210 -141 -132 329 -514 -535 -530 0 0 
369 255 -518 216 -131 -129 343 -513 -534 -530 0 0 
370 260 -525 208 -127 -89 316 -513 -536 -529 0 0 
371 251 -508 201 -137 -91 315 -519 -534 -530 0 0 
372 238 -492 204 -138 -117 329 -525 -537 -530 0 0 
373 237 -484 220 -121 -85 303 -517 -533 -531 0 0 
374 229 -474 236 -131 -92 328 -514 -534 -529 0 0 
375 238 -488 241 -134 -124 334 -512 -535 -531 0 0 
376 252 -506 234 -135 -87 329 -507 -534 -529 0 0 
377 261 -524 225 -133 -88 319 -524 -532 -529 0 0 
378 269 -523 225 -152 -118 339 -520 -537 -530 0 0 
379 262 -529 221 -128 -110 308 -521 -533 -531 0 0 
380 271 -536 216 -117 -100 296 -521 -534 -530 0 0 
381 276 -540 201 -149 -118 321 -518 -534 -529 0 0 
382 271 -531 195 -152 -103 282 -520 -536 -531 0 0 
383 262 -522 205 -111 -108 320 -513 -532 -531 0 0 
384 259 -515 215 -136 -148 360 -508 -534 -529 0 0 
385 257 -525 206 -137 -128 354 -500 -535 -529 0 0 
386 253 -513 197 -130 -76 306 -516 -533 -527 0 0 
387 243 -497 204 -148 -92 336 -526 -536 -531 0 0 
388 235 -480 223 -106 -97 330 -517 -534 -533 0 0 
389 232 -484 240 -118 -104 325 -522 -535 -529 0 0 
390 242 -497 247 -140 -91 317 -513 -537 -530 0 0 
391 260 -516 242 -124 -76 295 -519 -533 -531 0 0 
392 262 -526 235 -136 -99 317 -525 -536 -529 0 0 
393 262 -528 230 -118 -100 311 -509 -534 -532 0 0 
394 270 -538 230 -128 -113 333 -518 -533 -529 0 0 
395 266 -540 218 -142 -83 320 -512 -536 -530 0 0 
396 275 -545 206 -123 -92 322 -521 -535 -531 0 0 
397 268 -530 198 -113 -94 321 -518 -534 -530 0 0 
398 258 -522 208 -130 -94 313 -518 -536 -529 0 0 
399 260 -520 213 -138 -97 305 -519 -537 -530 0 0 
400 253 -524 204 -87 -85 324 -516 -532 -533 0 0 
401 257 -509 197 -113 -111 325 -513 -535 -527 0 0 
402 242 -498 206 -168 -107 317 -516 -537 -529 0 0 
403 235 -476 223 -103 -62 288 -519 -532 -533 0 0 
404 234 -479 242 -112 -107 348 -519 -535 -528 0 0 
405 244 -496 244 -136 -137 352 -507 -538 -530 0 0 
406 257 -510 241 -127 -51 293 -518 -533 -528 0 0 
407 259 -526 230 -123 -72 305 -525 -534 -530 0 0 
408 267 -527 229 -160 -116 329 -518 -536 -529 0 0 
409 267 -529 225 -99 -84 312 -515 -532 -531 0 0 
410 270 -539 212 -117 -99 324 -515 -535 -528 0 0 
411 273 -542 201 -161 -112 322 -516 -537 -529 0 0 
412 266 -533 196 -112 -66 298 -518 -534 -531 0 0 
413 261 -517 206 -118 -98 321 -522 -534 -530 0 0 
414 254 -518 209 -144 -128 342 -514 -536 -530 0 0 
415 256 -519 199 -117 -60 289 -509 -535 -529 0 0 
416 252 -509 194 -141 -80 303 -524 -535 -529 0 0 
417 241 -491 207 -141 -95 325 -520 -535 -531 0 0 
418 235 -476 228 -126 -95 311 -517 -534 -530 0 0 
419 241 -484 244 -122 -80 313 -513 -534 -529 0 0 
420 251 -503 242 -131 -106 314 -519 -536 -529 0 0 
421 265 -523 234 -145 -83 309 -516 -535 -531 0 0 
422 261 -532 228 -108 -97 305 -518 -534 -529 0 0 
423 263 -537 229 -149 -113 320 -521 -536 -529 0 0 
424 267 -547 221 -142 -115 327 -512 -535 -531 0 0 
425 277 -550 211 -130 -104 325 -508 -535 -529 0 0 
426 269 -543 199 -142 -107 332 -517 -537 -529 0 0 
427 264 -528 200 -137 -84 318 -516 -535 -530 0 0 
428 255 -521 209 -120 -100 311 -526 -536 -530 0 0 
429 257 -523 206 -121 -103 312 -520 -535 -530 0 0 
430 259 -518 196 -121 -107 309 -516 -534 -529 0 0 
431 249 -503 198 -136 -63 280 -515 -536 -530 0 0 
432 239 -482 213 -140 -73 298 -515 -535 -530 0 0 
433 233 -484 232 -125 -107 330 -512 -534 -530 0 0 
434 243 -498 244 -122 -112 335 -514 -535 -529 0 0 
435 258 -514 240 -142 -61 298 -517 -535 -529 0 0 
436 263 -521 231 -124 -95 325 -519 -533 -532 0 0 
437 267 -523 227 -112 -89 328 -514 -535 -528 0 0 
438 269 -526 225 -141 -89 317 -526 -534 -530 0 0 
439 273 -534 215 -111 -95 318 -513 -534 -531 0 0 
440 275 -546 206 -125 -98 300 -518 -536 -529 0 0 
441 272 -530 199 -116 -93 322 -512 -534 -531 0 0 
442 263 -525 206 -115 -113 341 -509 -534 -529 0 0 
443 257 -525 212 -150 -112 330 -516 -534 -529 0 0 
444 259 -519 200 -128 -58 313 -517 -536 -530 0 0 
445 256 -517 194 -129 -110 328 -517 -534 -531 0 0 
446 245 -497 202 -125 -120 338 -522 -534 -530 0 0 
447 245 -497 202 -125 -120 338 -522 -534 -530 0 0 
448 237 -486 224 -146 -78 297 -521 -535 -529 0 0 
449 239 -485 240 -138 -120 337 -517 -535 -531 0 0 
450 250 -504 241 -94 -100 342 -505 -534 -531 0 0 
451 260 -517 236 -159 -80 316 -518 -534 -526 0 0 
452 263 -524 226 -173 -77 310 -519 -539 -529 0 0 
453 264 -537 225 -110 -81 296 -523 -532 -534 0 0 
454 268 -541 219 -77 -80 309 -523 -532 -528 0 0 
455 271 -546 207 -171 -106 311 -521 -537 -528 0 0 
456 273 -535 195 -151 -90 287 -512 -535 -532 0 0 
457 266 -523 200 -98 -90 299 -517 -531 -530 0 0 
458 257 -517 210 -153 -115 323 -513 -537 -527 0 0 
459 257 -515 207 -156 -127 349 -509 -534 -530 0 0 
460 257 -514 194 -114 -86 324 -507 -533 -530 0 0 
461 249 -497 201 -158 -79 308 -530 -536 -526 0 0 
462 239 -482 219 -149 -106 340 -521 -534 -533 0 0 
463 235 -480 241 -113 -128 349 -509 -534 -531 0 0 
464 245 -491 245 -144 -82 311 -512 -538 -528 0 0 
465 253 -515 240 -105 -31 276 -520 -533 -530 0 0 
466 261 -525 235 -103 -68 319 -525 -532 -529 0 0 
467 262 -533 229 -163 -129 347 -513 -536 -531 0 0 
468 266 -529 225 -127 -88 302 -510 -534 -531 0 0 
469 275 -538 212 -106 -65 310 -525 -534 -529 0 0 
470 271 -538 201 -121 -74 328 -514 -534 -530 0 0 
471 269 -523 198 -159 -120 338 -520 -536 -529 0 0 
472 256 -523 207 -130 -70 296 -519 -535 -531 0 0 
473 253 -515 209 -107 -77 308 -519 -534 -529 0 0 
474 258 -517 198 -132 -105 344 -507 -534 -530 0 0 
475 255 -505 195 -149 -90 311 -513 -536 -528 0 0 
476 239 -485 209 -148 -68 305 -524 -536 -531 0 0 
477 238 -476 231 -102 -101 332 -521 -535 -531 0 0 
478 239 -488 242 -119 -119 345 -514 -534 -529 0 0 
479 251 -510 241 -129 -100 333 -514 -536 -529 0 0 
480 263 -513 231 -150 -72 296 -517 -538 -529 0 0 
481 265 -529 230 -96 -75 318 -524 -533 -533 0 0 
482 263 -532 226 -90 -98 328 -519 -534 -529 0 0 
483 269 -538 215 -183 -96 311 -515 -539 -528 0 0 
484 271 -539 204 -115 -71 289 -517 -535 -533 0 0 
485 269 -529 196 -76 -61 310 -521 -532 -530 0 0 
486 260 -516 205 -117 -103 333 -513 -535 -528 0 0 
487 257 -515 210 -162 -78 302 -510 -539 -530 0 0 
488 259 -515 203 -91 -62 293 -520 -531 -533 0 0 
489 260 -504 194 -89 -73 344 -512 -536 -526 0 0 
490 240 -484 205 -165 -112 311 -518 -537 -530 0 0 
491 234 -480 228 -127 -62 296 -526 -535 -533 0 0 
492 240 -480 245 -84 -68 300 -523 -532 -531 0 0 
493 249 -499 242 -150 -118 323 -512 -538 -528 0 0 
494 261 -516 233 -114 -75 291 -517 -533 -532 0 0 
495 260 -528 230 -113 -57 296 -519 -535 -529 0 0 
496 267 -535 229 -132 -107 325 -520 -535 -531 0 0 
497 267 -534 219 -119 -80 316 -510 -534 -530 0 0 
498 270 -541 207 -133 -110 338 -512 -536 -529 0 0 
499 270 -532 195 -119 -68 306 -509 -536 -529 0 0 
500 260 -516 205 -128 -65 295 -528 -535 -530 0 0 
501 254 -518 209 -135 -81 338 -520 -534 -531 0 0 
502 256 -515 201 -117 -129 349 -514 -535 -531 0 0 
503 253 -511 192 -129 -78 304 -522 -536 -529 0 0 
504 244 -490 205 -102 -73 309 -519 -533 -531 0 0 
505 236 -471 225 -128 -107 319 -518 -536 -528 0 0 
506 238 -480 241 -122 -67 309 -515 -535 -531 0 0 
507 255 -503 244 -112 -89 310 -514 -535 -530 0 0 
508 262 -521 234 -123 -119 357 -513 -536 -529 0 0 
509 271 -528 228 -125 -81 290 -521 -535 -530 0 0 
510 265 -535 229 -142 -57 308 -530 -536 -529 0 0 
511 268 -536 223 -123 -98 335 -512 -534 -534 0 0 
512 269 -535 206 -115 -104 323 -513 -535 -529 0 0 
513 271 -526 197 -115 -48 285 -523 -536 -528 0 0 
514 261 -513 204 -120 -50 279 -528 -534 -532 0 0 
515 256 -516 209 -107 -109 319 -519 -536 -532 0 0 
516 255 -520 202 -109 -97 307 -512 -534 -529 0 0 
517 252 -506 194 -129 -87 311 -513 -536 -529 0 0 
518 239 -491 204 -132 -108 317 -517 -534 -531 0 0 
519 235 -477 225 -99 -63 287 -517 -535 -530 0 0 
520 239 -477 241 -119 -86 311 -519 -534 -530 0 0 
521 247 -496 246 -143 -140 359 -508 -536 -531 0 0 
522 258 -511 236 -78 -80 317 -508 -533 -529 0 0 
523 261 -521 231 -118 -70 318 -519 -534 -527 0 0 
524 265 -529 229 -153 -101 341 -518 -536 -531 0 0 
525 268 -540 222 -102 -102 321 -515 -535 -531 0 0 
526 278 -544 209 -102 -95 323 -527 -535 -529 0 0 
527 267 -533 198 -114 -94 324 -517 -535 -530 0 0 
528 261 -514 204 -115 -78 305 -521 -533 -530 0 0 
529 253 -515 211 -126 -93 324 -515 -535 -530 0 0 
530 251 -517 206 -130 -121 331 -514 -534 -530 0 0 
531 258 -508 196 -102 -60 313 -515 -536 -529 0 0 
532 243 -496 209 -116 -85 317 -517 -533 -531 0 0 
533 229 -475 228 -127 -112 352 -521 -536 -529 0 0 
534 244 -485 244 -103 -72 317 -513 -535 -532 0 0 
535 248 -496 242 -74 -89 343 -521 -535 -530 0 0 
536 257 -518 234 -95 -93 314 -519 -535 -529 0 0 
537 262 -529 228 -134 -86 295 -528 -536 -529 0 0 
538 266 -531 227 -91 -83 275 -531 -534 -533 0 0 
539 267 -537 219 -91 -106 311 -520 -533 -530 0 0 
540 271 -537 206 -117 -140 328 -507 -536 -529 0 0 
541 272 -532 201 -115 -71 311 -497 -535 -528 0 0 
542 259 -520 210 -103 -94 345 -508 -533 -530 0 0 
543 257 -511 215 -129 -112 378 -506 -538 -529 0 0 
544 262 -517 202 -93 -83 353 -512 -535 -530 0 0 
545 251 -513 197 -104 -88 338 -528 -535 -529 0 0 
546 241 -488 210 -134 -91 329 -531 -539 -530 0 0 
547 233 -474 231 -82 -89 306 -530 -533 -533 0 0 
548 241 -484 246 -98 -106 315 -522 -535 -529 0 0 
549 255 -502 244 -121 -114 315 -514 -536 -529 0 0 
550 263 -521 234 -108 -89 290 -507 -536 -530 0 0 
551 264 -528 232 -99 -94 324 -523 -535 -531 0 0 
552 273 -530 229 -97 -104 326 -515 -535 -531 0 0 
553 271 -538 221 -114 -106 334 -510 -536 -528 0 0 
554 271 -539 207 -109 -93 322 -517 -536 -531 0 0 
555 266 -526 199 -82 -61 304 -517 -535 -529 0 0 
556 259 -510 209 -97 -89 309 -527 -534 -529 0 0 
557 253 -512 212 -113 -121 325 -511 -537 -531 0 0 
558 264 -522 200 -89 -95 316 -517 -533 -530 0 0 
559 252 -505 199 -104 -70 302 -520 -537 -528 0 0 
560 239 -486 215 -115 -107 341 -518 -534 -531 0 0 
561 233 -474 236 -105 -108 335 -511 -535 -531 0 0 
562 241 -491 248 -120 -98 338 -510 -535 -529 0 0 
563 260 -514 243 -92 -83 330 -509 -536 -530 0 0 
564 268 -523 237 -97 -80 314 -527 -533 -529 0 0 
565 266 -530 232 -109 -80 331 -525 -536 -530 0 0 
566 263 -535 226 -110 -97 296 -519 -536 -531 0 0 
567 272 -541 216 -71 -79 297 -526 -533 -532 0 0 
568 271 -545 206 -84 -74 295 -520 -534 -529 0 0 
569 269 -524 203 -138 -116 317 -513 -536 -529 0 0 
570 257 -519 213 -88 -80 311 -508 -534 -532 0 0 
571 257 -522 213 -87 -81 320 -513 -533 -528 0 0 
572 254 -514 201 -132 -121 361 -511 -539 -528 0 0 
573 248 -501 204 -95 -70 303 -519 -533 -531 0 0 
574 238 -484 219 -113 -82 342 -524 -535 -529 0 0 
575 232 -482 241 -109 -124 358 -511 -536 -532 0 0 
576 242 -489 248 -110 -67 309 -519 -536 -528 0 0 
577 257 -508 239 -83 -72 303 -525 -532 -532 0 0 
578 261 -522 236 -107 -90 318 -521 -537 -528 0 0 
579 271 -532 233 -96 -99 322 -521 -533 -532 0 0 
580 270 -539 228 -84 -104 348 -506 -535 -530 0 0 
581 272 -540 219 -112 -117 337 -509 -536 -529 0 0 
582 273 -541 205 -110 -43 289 -517 -537 -528 0 0 
583 264 -521 206 -89 -65 303 -526 -533 -531 0 0 
584 261 -518 215 -93 -115 342 -526 -535 -532 0 0 
585 260 -517 212 -114 -140 351 -513 -535 -529 0 0 
586 254 -513 200 -104 -85 327 -509 -536 -529 0 0 
587 248 -501 206 -105 -80 314 -517 -535 -530 0 0 
588 236 -479 224 -119 -82 325 -521 -536 -529 0 0 
589 242 -484 243 -101 -121 337 -520 -535 -531 0 0 
590 249 -493 249 -92 -104 336 -519 -535 -530 0 0 
591 254 -509 241 -100 -65 297 -517 -535 -530 0 0 
592 263 -520 235 -107 -106 332 -519 -536 -530 0 0 
593 266 -530 233 -82 -89 315 -517 -533 -532 0 0 
594 268 -532 228 -116 -89 316 -517 -538 -528 0 0 
595 269 -536 215 -93 -104 345 -514 -534 -532 0 0 
596 272 -535 204 -90 -86 334 -509 -535 -529 0 0 
597 262 -516 210 -110 -95 330 -521 -536 -530 0 0 
598 255 -517 216 -107 -86 335 -515 -537 -531 0 0 
599 255 -521 209 -87 -110 341 -521 -533 -531 0 0 
600 251 -514 197 -105 -83 333 -520 -537 -528 0 0 
601 244 -493 209 -121 -70 279 -534 -537 -531 0 0 
602 234 -481 232 -89 -69 315 -528 -533 -531 0 0 
603 236 -483 249 -99 -108 307 -510 -537 -531 0 0 
604 249 -501 250 -92 -120 336 -503 -533 -530 0 0 
605 259 -520 239 -115 -72 308 -514 -535 -528 0 0 
606 263 -519 235 -142 -77 316 -518 -537 -528 0 0 
607 264 -526 232 -95 -90 315 -525 -533 -533 0 0 
608 270 -544 224 -93 -125 354 -515 -535 -529 0 0 
609 273 -544 209 -116 -121 340 -510 -538 -528 0 0 
610 270 -530 202 -100 -64 292 -522 -535 -530 0 0 
611 258 -517 209 -101 -96 336 -526 -531 -530 0 0 
612 255 -518 213 -131 -145 349 -517 -539 -530 0 0 
613 255 -523 206 -108 -110 317 -513 -532 -531 0 0 
614 259 -507 204 -85 -66 321 -522 -533 -528 0 0 
615 238 -492 220 -119 -127 358 -510 -535 -529 0 0 
616 233 -477 238 -108 -125 367 -504 -534 -530 0 0 
617 240 -488 249 -102 -78 332 -516 -535 -527 0 0 
618 260 -516 243 -112 -84 333 -521 -535 -531 0 0 
619 271 -522 237 -111 -96 318 -531 -535 -530 0 0 
620 265 -529 231 -117 -88 304 -533 -536 -530 0 0 
621 267 -537 231 -98 -105 307 -522 -535 -533 0 0 
622 271 -547 218 -81 -121 339 -508 -533 -530 0 0 
623 272 -544 207 -94 -114 330 -509 -535 -528 0 0 
624 266 -532 203 -133 -65 295 -522 -536 -528 0 0 
625 258 -518 213 -97 -54 310 -515 -535 -533 0 0 
626 261 -525 211 -65 -111 327 -518 -532 -531 0 0 
627 254 -520 202 -123 -117 322 -513 -536 -525 0 0 
628 249 -502 206 -146 -104 338 -520 -536 -529 0 0 
629 238 -486 222 -111 -77 325 -505 -533 -531 0 0 
630 236 -481 243 -110 -82 327 -522 -534 -527 0 0 
631 244 -493 249 -114 -104 317 -524 -535 -531 0 0 
632 257 -512 242 -101 -100 341 -516 -534 -530 0 0 
633 260 -521 238 -111 -101 340 -508 -534 -532 0 0 
634 264 -528 235 -116 -121 372 -508 -536 -528 0 0 
635 267 -531 226 -109 -71 307 -519 -535 -529 0 0 
636 268 -551 217 -128 -72 313 -532 -535 -530 0 0 
637 271 -534 203 -91 -125 341 -521 -535 -534 0 0 
638 264 -525 207 -87 -98 326 -516 -535 -529 0 0 
639 253 -513 213 -110 -91 325 -515 -537 -530 0 0 
640 253 -523 207 -92 -91 325 -516 -534 -530 0 0 
641 259 -516 196 -104 -84 320 -522 -535 -530 0 0 
642 243 -496 209 -114 -80 317 -518 -536 -531 0 0 
643 232 -481 228 -64 -82 298 -523 -534 -531 0 0 
644 236 -485 245 -95 -69 304 -523 -535 -530 0 0 
645 250 -512 246 -131 -87 304 -510 -536 -529 0 0 
646 260 -522 238 -78 -75 315 -515 -535 -531 0 0 
647 261 -527 230 -77 -85 298 -517 -534 -530 0 0 
648 263 -536 232 -125 -102 326 -520 -537 -527 0 0 
649 268 -537 220 -83 -91 309 -523 -536 -534 0 0 
650 270 -546 212 -79 -112 329 -514 -533 -529 0 0 
651 273 -530 204 -117 -108 340 -501 -537 -527 0 0 
652 261 -514 216 -113 -107 324 -511 -534 -531 0 0 
653 256 -513 214 -90 -93 355 -508 -536 -529 0 0 
654 257 -519 204 -105 -121 360 -517 -536 -530 0 0 
655 252 -504 202 -104 -82 324 -528 -537 -530 0 0 
656 239 -491 216 -82 -79 307 -533 -533 -532 0 0 
657 236 -480 238 -111 -116 333 -520 -537 -530 0 0 
658 243 -488 246 -108 -105 300 -516 -535 -532 0 0 
659 253 -512 242 -81 -82 311 -510 -535 -530 0 0 
660 261 -522 235 -104 -111 324 -518 -536 -529 0 0 
661 265 -532 236 -104 -78 326 -510 -535 -531 0 0 
662 268 -539 229 -103 -98 333 -519 -535 -529 0 0 
663 271 -537 217 -114 -106 320 -517 -537 -529 0 0 
664 274 -536 203 -71 -83 311 -523 -533 -531 0 0 
665 268 -524 205 -113 -109 309 -512 -536 -528 0 0 
666 256 -519 213 -98 -104 327 -518 -535 -531 0 0 
667 258 -515 211 -82 -69 293 -516 -535 -530 0 0 
668 255 -512 201 -85 -91 307 -520 -533 -530 0 0 
669 249 -494 207 -105 -83 315 -516 -537 -529 0 0 
670 244 -474 229 -96 -75 301 -509 -532 -530 0 0 
671 238 -477 247 -101 -109 367 -503 -535 -529 0 0 
672 247 -497 250 -96 -91 329 -515 -535 -530 0 0 
673 262 -520 242 -94 -53 327 -521 -534 -529 0 0 
674 265 -528 236 -83 -85 321 -527 -533 -532 0 0 
675 265 -528 233 -109 -107 318 -520 -537 -529 0 0 
676 274 -546 227 -69 -77 310 -519 -532 -531 0 0 
677 273 -542 214 -71 -93 319 -517 -534 -528 0 0 
678 273 -531 203 -135 -84 314 -513 -535 -529 0 0 
679 256 -516 218 -77 -105 345 -512 -533 -530 0 0 
680 258 -524 210 -100 -84 336 -514 -535 -529 0 0 
681 260 -511 203 -119 -70 311 -517 -536 -529 0 0 
682 243 -491 215 -112 -86 337 -517 -535 -531 0 0 
683 236 -480 239 -77 -109 342 -520 -536 -530 0 0 
684 240 -486 248 -104 -73 307 -521 -534 -529 0 0 
685 254 -504 249 -114 -103 336 -519 -535 -531 0 0 
686 262 -517 241 -111 -105 339 -509 -536 -530 0 0 
687 265 -524 236 -70 -78 342 -513 -532 -531 0 0 
688 266 -532 229 -110 -93 326 -520 -536 -527 0 0 
689 273 -539 220 -139 -92 315 -528 -536 -531 0 0 
690 276 -543 206 -63 -88 314 -522 -532 -533 0 0 
691 269 -522 206 -90 -108 328 -515 -535 -527 0 0 
692 259 -515 215 -121 -110 326 -513 -536 -530 0 0 
693 257 -521 214 -89 -90 328 -512 -533 -531 0 0 
694 258 -516 203 -94 -108 357 -514 -534 -529 0 0 
695 249 -504 208 -117 -99 333 -516 -537 -529 0 0 
696 239 -484 223 -89 -54 312 -522 -532 -530 0 0 
697 236 -480 246 -82 -111 343 -524 -534 -533 0 0 
698 255 -495 249 -108 -116 345 -515 -537 -529 0 0 
699 259 -516 244 -107 -76 310 -515 -534 -530 0 0 
700 264 -525 237 -85 -80 315 -521 -534 -530 0 0 
701 271 -525 237 -85 -104 322 -520 -533 -531 0 0 
702 270 -537 230 -115 -95 321 -516 -535 -530 0 0 
703 281 -545 218 -109 -90 331 -511 -535 -529 0 0 
704 276 -536 207 -97 -85 319 -513 -533 -530 0 0 
705 263 -520 211 -83 -94 336 -520 -534 -529 0 0 
706 256 -520 217 -131 -113 322 -517 -537 -529 0 0 
707 260 -518 210 -94 -88 323 -521 -533 -532 0 0 
708 255 -513 203 -89 -80 313 -519 -535 -529 0 0 
709 243 -493 216 -101 -103 325 -513 -534 -530 0 0 
710 234 -482 233 -100 -95 321 -522 -534 -530 0 0 
711 239 -490 251 -121 -71 315 -511 -537 -530 0 0 
712 251 -512 246 -76 -76 311 -520 -533 -531 0 0 
713 268 -517 238 -108 -72 280 -529 -535 -529 0 0 
714 263 -523 237 -119 -84 301 -523 -534 -531 0 0 
715 266 -525 233 -106 -126 323 -513 -534 -532 0 0 
716 269 -538 224 -108 -90 318 -502 -536 -527 0 0 
717 275 -539 210 -101 -78 309 -512 -534 -530 0 0 
718 267 -528 207 -105 -82 331 -518 -534 -530 0 0 
719 257 -514 214 -127 -124 363 -517 -535 -530 0 0 
720 255 -519 212 -114 -104 339 -513 -536 -530 0 0 
721 257 -518 202 -83 -76 317 -521 -532 -530 0 0 
722 249 -503 206 -131 -106 339 -527 -536 -529 0 0 
723 238 -488 225 -112 -122 340 -514 -536 -532 0 0 
724 238 -487 245 -98 -99 332 -511 -534 -528 0 0 
725 244 -498 249 -109 -73 326 -519 -535 -530 0 0 
726 257 -521 244 -119 -91 318 -516 -535 -530 0 0 
727 262 -519 236 -109 -94 325 -525 -534 -531 0 0 
728 267 -531 235 -102 -101 315 -518 -536 -531 0 0 
729 267 -538 228 -117 -96 310 -519 -535 -530 0 0 
730 272 -546 215 -102 -87 311 -518 -534 -529 0 0 
731 278 -530 206 -111 -84 304 -516 -535 -529 0 0 
732 260 -522 211 -103 -107 333 -516 -533 -531 0 0 
733 256 -521 217 -115 -95 330 -509 -537 -528 0 0 
734 257 -524 207 -114 -100 318 -520 -534 -531 0 0 
735 253 -518 202 -101 -78 300 -519 -535 -530 0 0 
736 245 -491 213 -119 -101 321 -525 -535 -529 0 0 
737 233 -481 235 -108 -101 317 -515 -534 -531 0 0 
738 243 -485 248 -113 -95 319 -514 -536 -528 0 0 
739 252 -507 249 -99 -96 326 -511 -533 -530 0 0 
740 264 -526 240 -103 -99 337 -513 -535 -528 0 0 
741 265 -525 240 -107 -113 342 -513 -536 -530 0 0 
742 265 -529 233 -81 -86 340 -514 -533 -530 0 0 
743 271 -534 223 -104 -88 315 -523 -535 -528 0 0 
744 276 -544 208 -129 -115 326 -522 -537 -530 0 0 
745 268 -525 210 -81 -100 321 -517 -532 -532 0 0 
746 258 -526 217 -95 -110 335 -512 -535 -528 0 0 
747 256 -524 214 -131 -94 321 -512 -538 -529 0 0 
748 255 -516 204 -101 -84 319 -520 -533 -531 0 0 
749 248 -503 208 -99 -100 339 -519 -535 -530 0 0 
750 237 -485 227 -123 -118 334 -518 -537 -529 0 0 
751 238 -480 247 -83 -66 288 -523 -534 -531 0 0 
752 246 -501 249 -76 -80 299 -526 -534 -529 0 0 
753 257 -526 241 -119 -94 294 -521 -538 -528 0 0 
754 262 -527 236 -80 -89 292 -519 -533 -532 0 0 
755 265 -532 236 -80 -81 299 -514 -535 -528 0 0 
756 266 -538 230 -133 -111 320 -507 -535 -528 0 0 
757 270 -543 213 -102 -87 332 -505 -536 -530 0 0 
758 279 -516 190 -89 -69 309 -513 -534 -528 0 0 
759 268 -500 197 -103 -95 338 -526 -534 -530 0 0 
760 261 -493 203 -120 -122 349 -518 -536 -530 0 0 
761 263 -500 195 -127 -104 340 -513 -535 -530 0 0 
762 258 -486 193 -98 -79 322 -517 -535 -530 0 0 
763 241 -470 206 -105 -110 333 -521 -533 -530 0 0 
764 236 -463 230 -122 -124 348 -524 -536 -530 0 0 
765 244 -473 239 -110 -90 301 -519 -536 -531 0 0 
766 259 -498 240 -97 -70 293 -521 -534 -530 0 0 
767 264 -509 230 -114 -126 324 -519 -535 -530 0 0 
768 268 -516 231 -126 -97 310 -514 -535 -529 0 0 
769 266 -522 225 -107 -84 304 -515 -533 -530 0 0 
770 271 -531 210 -117 -115 340 -509 -537 -529 0 0 
771 274 -528 200 -96 -88 316 -517 -533 -530 0 0 
772 264 -508 201 -89 -72 307 -529 -535 -529 0 0 
773 260 -508 210 -122 -119 323 -522 -537 -531 0 0 
774 256 -507 203 -98 -96 315 -514 -534 -529 0 0 
775 256 -503 195 -82 -74 282 -522 -534 -529 0 0 
776 246 -489 204 -123 -107 312 -521 -536 -529 0 0 
777 234 -473 227 -90 -107 315 -514 -533 -531 0 0 
778 233 -480 244 -104 -95 319 -510 -535 -529 0 0 
779 251 -501 242 -116 -109 340 -505 -533 -529 0 0 
780 263 -509 234 -124 -110 346 -518 -535 -528 0 0 
781 263 -516 228 -113 -88 332 -517 -535 -531 0 0 
782 267 -527 226 -80 -102 330 -523 -533 -530 0 0 
783 270 -534 214 -125 -102 298 -528 -537 -529 0 0 
784 280 -539 201 -110 -92 297 -523 -533 -531 0 0 
785 269 -520 201 -93 -101 295 -518 -533 -530 0 0 
786 266 -512 211 -125 -99 335 -507 -536 -528 0 0 
787 257 -509 211 -110 -113 321 -501 -532 -530 0 0 
788 256 -508 199 -112 -131 363 -514 -535 -527 0 0 
789 245 -497 202 -118 -88 332 -514 -536 -531 0 0 
790 238 -479 220 -111 -113 355 -520 -532 -529 0 0 
791 242 -474 239 -107 -109 347 -523 -536 -529 0 0 
792 247 -492 243 -92 -95 319 -524 -534 -531 0 0 
793 261 -509 236 -76 -110 321 -520 -532 -530 0 0 
794 263 -516 228 -116 -108 314 -522 -536 -527 0 0 
795 265 -528 226 -105 -100 301 -518 -534 -531 0 0 
796 267 -536 220 -101 -126 343 -517 -533 -530 0 0 
797 274 -535 205 -108 -127 333 -510 -534 -529 0 0 
798 271 -530 199 -122 -101 317 -516 -534 -528 0 0 
799 263 -515 208 -113 -117 350 -518 -533 -531 0 0 
800 255 -515 210 -137 -142 369 -507 -538 -528 0 0 
801 256 -517 200 -113 -119 340 -517 -533 -531 0 0 
802 253 -500 197 -101 -86 326 -521 -535 -528 0 0 
803 237 -481 215 -130 -122 332 -523 -535 -530 0 0 
804 235 -477 236 -100 -107 320 -523 -534 -531 0 0 
805 242 -490 247 -135 -118 321 -516 -536 -528 0 0 
806 255 -507 238 -122 -124 343 -511 -536 -530 0 0 
807 264 -513 232 -80 -87 302 -518 -534 -531 0 0 
808 262 -521 230 -137 -117 335 -526 -535 -528 0 0 
809 264 -533 223 -123 -133 332 -514 -537 -530 0 0 
810 269 -539 209 -90 -109 318 -515 -532 -530 0 0 
811 272 -526 200 -127 -101 327 -513 -536 -528 0 0 
812 260 -523 207 -138 -94 324 -515 -537 -529 0 0 
813 257 -519 213 -95 -93 329 -516 -534 -532 0 0 
814 253 -527 204 -114 -111 327 -525 -536 -528 0 0 
815 249 -517 198 -117 -97 301 -526 -537 -530 0 0 
816 237 -489 213 -81 -87 307 -516 -530 -531 0 0 
817 234 -479 235 -95 -121 334 -511 -538 -526 0 0 
818 237 -494 248 -130 -95 319 -503 -536 -530 0 0 
819 250 -514 245 -73 -71 327 -516 -532 -530 0 0 
820 257 -523 237 -97 -95 332 -524 -537 -528 0 0 
821 262 -530 234 -110 -100 321 -521 -536 -532 0 0 
822 263 -537 230 -84 -93 313 -519 -534 -529 0 0 
823 267 -546 217 -113 -113 305 -526 -538 -529 0 0 
824 269 -547 205 -99 -103 297 -520 -535 -531 0 0 
825 259 -526 209 -98 -115 317 -517 -533 -529 0 0 
826 252 -521 215 -114 -130 328 -511 -538 -530 0 0 
827 253 -524 211 -111 -86 305 -510 -535 -529 0 0 
828 251 -518 203 -99 -93 334 -518 -535 -530 0 0 
829 238 -505 210 -109 -98 325 -516 -536 -530 0 0 
830 228 -483 233 -103 -88 318 -524 -535 -529 0 0 
831 239 -490 245 -99 -101 308 -518 -537 -529 0 0 
832 248 -509 246 -117 -84 295 -522 -536 -529 0 0 
833 259 -526 236 -105 -84 283 -527 -534 -532 0 0 
834 263 -528 235 -116 -113 321 -516 -535 -528 0 0 
835 266 -537 231 -125 -136 326 -510 -535 -530 0 0 
836 266 -545 221 -105 -119 349 -504 -535 -529 0 0 
837 270 -543 204 -129 -91 320 -515 -536 -528 0 0 
838 263 -527 204 -114 -91 322 -522 -536 -530 0 0 
839 253 -519 212 -91 -100 324 -525 -533 -529 0 0 
840 252 -524 210 -119 -139 320 -518 -537 -530 0 0 
841 250 -520 200 -103 -87 301 -523 -535 -529 0 0 
842 243 -502 205 -94 -62 279 -521 -534 -530 0 0 
843 229 -482 228 -114 -120 328 -520 -534 -530 0 0 
844 234 -484 245 -108 -84 291 -510 -536 -530 0 0 
845 249 -504 245 -106 -88 294 -521 -534 -529 0 0 
846 255 -520 235 -94 -102 306 -516 -534 -530 0 0 
847 260 -523 234 -129 -91 310 -518 -536 -528 0 0 
848 263 -535 230 -113 -99 308 -515 -534 -532 0 0 
849 273 -543 215 -90 -110 330 -513 -536 -528 0 0 
850 267 -546 204 -119 -101 288 -523 -536 -529 0 0 
851 262 -541 202 -89 -79 297 -525 -533 -530 0 0 
852 253 -525 211 -96 -112 313 -516 -535 -528 0 0 
853 254 -529 210 -125 -135 332 -508 -535 -529 0 0 
854 257 -525 195 -102 -83 286 -515 -537 -528 0 0 
855 257 -525 195 -102 -83 286 -515 -537 -528 0 0 
856 248 -501 204 -104 -57 270 -526 -534 -529 0 0 
857 233 -483 218 -106 -137 340 -522 -534 -532 0 0 
858 236 -477 236 -128 -142 325 -509 -537 -529 0 0 
859 252 -496 238 -111 -113 304 -516 -535 -529 0 0 
860 261 -513 230 -101 -97 306 -516 -533 -528 0 0 
861 263 -520 224 -136 -152 363 -514 -535 -529 0 0 
862 266 -527 221 -133 -137 334 -507 -539 -529 0 0 
863 266 -529 210 -98 -72 290 -530 -533 -530 0 0 
864 272 -534 199 -103 -107 304 -526 -535 -530 0 0 
865 267 -523 197 -132 -148 325 -519 -535 -531 0 0 
866 263 -510 205 -135 -141 345 -503 -536 -530 0 0 
867 255 -513 204 -107 -105 329 -507 -535 -527 0 0 
868 252 -512 192 -116 -105 337 -517 -535 -529 0 0 
869 251 -497 197 -118 -90 320 -523 -535 -529 0 0 
870 234 -478 215 -112 -114 319 -526 -533 -531 0 0 
871 236 -476 234 -122 -105 320 -519 -537 -529 0 0 
872 252 -496 237 -113 -86 288 -515 -534 -531 0 0 
873 266 -508 228 -96 -83 303 -528 -534 -528 0 0 
874 267 -512 225 -116 -99 298 -515 -535 -531 0 0 
875 265 -523 221 -137 -126 325 -508 -536 -528 0 0 
876 265 -534 213 -92 -83 286 -521 -535 -530 0 0 
877 272 -534 200 -118 -86 324 -516 -535 -527 0 0 
878 265 -522 195 -115 -135 336 -508 -533 -531 0 0 
879 257 -516 204 -137 -96 312 -515 -539 -527 0 0 
880 251 -518 202 -115 -92 308 -519 -535 -531 0 0 
881 252 -515 190 -82 -106 334 -518 -534 -530 0 0 
882 244 -502 196 -90 -113 301 -530 -535 -529 0 0 
883 236 -478 221 -128 -95 312 -515 -534 -531 0 0 
884 235 -477 237 -102 -150 341 -510 -534 -533 0 0 
885 243 -498 240 -118 -127 322 -514 -537 -525 0 0 
886 260 -510 231 -113 -82 317 -524 -532 -530 0 0 
887 262 -518 226 -136 -126 338 -512 -536 -530 0 0 
888 263 -523 219 -141 -146 330 -518 -535 -529 0 0 
889 269 -536 211 -88 -77 292 -522 -535 -530 0 0 
890 272 -539 199 -114 -110 323 -522 -533 -528 0 0 
891 264 -524 195 -140 -148 344 -515 -537 -529 0 0 
892 256 -517 203 -110 -91 322 -514 -533 -530 0 0 
893 253 -523 202 -116 -105 324 -516 -536 -528 0 0 
894 255 -520 191 -130 -109 321 -523 -535 -529 0 0 
895 246 -507 196 -111 -101 304 -522 -535 -530 0 0 
896 231 -481 219 -122 -122 325 -525 -534 -530 0 0 
897 235 -489 236 -115 -96 309 -514 -537 -529 0 0 
898 247 -506 239 -103 -74 280 -520 -532 -530 0 0 
899 257 -521 229 -120 -121 324 -519 -537 -529 0 0 
900 256 -532 230 -135 -103 306 -516 -535 -530 0 0 
901 257 -543 223 -115 -103 315 -516 -534 -529 0 0 
902 265 -549 213 -128 -102 297 -516 -535 -528 0 0 
903 265 -543 201 -145 -107 307 -527 -536 -529 0 0 
904 260 -532 199 -108 -98 313 -513 -534 -532 0 0 
905 254 -530 207 -124 -116 322 -517 -535 -526 0 0 
906 252 -525 202 -129 -119 303 -521 -537 -530 0 0 
907 247 -524 191 -107 -89 308 -515 -534 -530 0 0 
908 237 -499 201 -124 -116 318 -528 -534 -529 0 0 
909 229 -485 225 -134 -108 308 -511 -537 -529 0 0 
910 229 -492 240 -102 -126 316 -515 -533 -529 0 0 
911 244 -508 240 -131 -118 309 -515 -537 -528 0 0 
912 255 -524 229 -122 -101 303 -520 -535 -529 0 0 
913 257 -532 226 -103 -100 291 -526 -534 -531 0 0 
914 259 -541 222 -144 -119 316 -516 -536 -527 0 0 
915 264 -547 210 -120 -125 308 -519 -536 -530 0 0 
916 266 -546 199 -91 -99 294 -514 -533 -530 0 0 
917 259 -531 198 -116 -120 315 -515 -536 -527 0 0 
918 251 -528 205 -126 -125 312 -511 -536 -530 0 0 
919 255 -530 200 -100 -114 318 -521 -534 -529 0 0 
920 248 -515 192 -124 -119 319 -522 -538 -528 0 0 
921 237 -496 204 -101 -123 321 -519 -533 -531 0 0 
922 229 -486 225 -123 -106 308 -516 -537 -528 0 0 
923 231 -500 240 -136 -123 301 -522 -535 -530 0 0 
924 247 -525 238 -100 -102 299 -517 -534 -530 0 0 
925 256 -535 225 -122 -123 306 -520 -535 -528 0 0 
926 256 -539 224 -128 -123 303 -520 -538 -529 0 0 
927 260 -544 221 -112 -120 299 -514 -534 -530 0 0 
928 265 -554 205 -108 -148 342 -519 -534 -530 0 0 
929 263 -543 195 -122 -121 308 -511 -536 -529 0 0 
930 254 -534 199 -127 -116 333 -519 -533 -530 0 0 
931 246 -525 206 -117 -126 310 -512 -536 -530 0 0 
932 251 -528 195 -101 -129 316 -523 -534 -529 0 0 
933 242 -514 193 -122 -103 301 -522 -538 -529 0 0 
934 235 -497 208 -105 -139 327 -517 -533 -531 0 0 
935 225 -495 231 -120 -139 318 -513 -538 -527 0 0 
936 232 -502 238 -134 -97 303 -507 -534 -528 0 0 
937 248 -519 233 -109 -113 313 -522 -535 -529 0 0 
938 254 -534 225 -113 -94 292 -521 -535 -529 0 0 
939 261 -537 224 -111 -125 307 -523 -534 -529 0 0 
940 259 -545 215 -133 -113 287 -520 -538 -528 0 0 
941 269 -551 201 -102 -91 282 -516 -534 -531 0 0 
942 263 -547 195 -93 -128 308 -519 -534 -528 0 0 
943 250 -532 203 -146 -108 297 -507 -538 -527 0 0 
944 249 -522 199 -117 -96 282 -517 -534 -530 0 0 
945 252 -523 187 -99 -106 324 -521 -534 -528 0 0 
946 243 -496 188 -126 -136 318 -518 -536 -529 0 0 
947 230 -480 207 -110 -110 330 -513 -534 -529 0 0 
948 230 -479 228 -99 -98 298 -512 -535 -528 0 0 
949 241 -496 233 -133 -107 300 -524 -536 -528 0 0 
950 252 -517 227 -99 -114 307 -519 -533 -531 0 0 
951 257 -528 220 -104 -137 317 -517 -535 -528 0 0 
952 257 -532 219 -146 -128 316 -510 -538 -529 0 0 
953 265 -543 205 -92 -123 323 -516 -531 -530 0 0 
954 264 -538 192 -129 -129 316 -519 -538 -527 0 0 
955 259 -529 191 -151 -119 311 -514 -535 -531 0 0 
956 249 -520 196 -92 -107 304 -515 -535 -529 0 0 
957 256 -519 196 -122 -106 284 -528 -535 -529 0 0 
958 248 -513 185 -130 -100 308 -517 -536 -531 0 0 
959 237 -500 192 -118 -149 323 -516 -533 -531 0 0 
960 227 -480 217 -127 -100 295 -513 -539 -527 0 0 
961 231 -488 234 -101 -71 274 -518 -532 -530 0 0 
962 251 -506 235 -132 -147 337 -511 -536 -529 0 0 
963 253 -517 223 -130 -127 313 -515 -536 -530 0 0 
964 255 -529 222 -121 -80 307 -517 -535 -528 0 0 
965 259 -534 215 -105 -102 322 -516 -535 -531 0 0 
966 264 -538 202 -138 -117 322 -519 -538 -528 0 0 
967 263 -535 191 -108 -84 287 -520 -533 -531 0 0 
968 255 -524 196 -100 -102 315 -519 -536 -529 0 0 
969 248 -515 200 -148 -140 312 -513 -538 -529 0 0 
970 249 -526 191 -110 -88 312 -516 -535 -530 0 0 
971 242 -510 187 -74 -72 295 -518 -535 -529 0 0 
972 228 -489 203 -145 -130 324 -524 -537 -527 0 0 
973 225 -481 226 -112 -87 284 -517 -535 -532 0 0 
974 233 -496 234 -102 -93 296 -519 -535 -528 0 0 
975 249 -512 227 -104 -119 299 -507 -537 -529 0 0 
976 259 -521 221 -104 -78 276 -524 -533 -528 0 0 
977 256 -528 219 -135 -69 288 -522 -535 -528 0 0 
978 261 -544 208 -135 -148 325 -517 -535 -532 0 0 
979 266 -542 194 -109 -101 285 -515 -536 -528 0 0 
980 262 -535 188 -88 -80 286 -519 -531 -529 0 0 
981 252 -519 200 -124 -103 304 -516 -537 -527 0 0 
982 249 -518 198 -123 -131 326 -511 -533 -531 0 0 
983 248 -522 190 -95 -96 317 -509 -534 -527 0 0 
984 238 -503 196 -119 -109 323 -515 -533 -528 0 0 
985 226 -482 218 -119 -112 338 -510 -534 -529 0 0 
986 228 -488 234 -123 -84 307 -521 -534 -527 0 0 
987 241 -515 235 -120 -98 316 -525 -532 -531 0 0 
988 254 -531 228 -113 -107 312 -522 -534 -528 0 0 
989 250 -537 227 -133 -109 301 -519 -535 -530 0 0 
990 254 -540 222 -132 -128 333 -511 -533 -529 0 0 
991 258 -549 208 -133 -101 315 -509 -534 -528 0 0 
992 260 -543 198 -136 -114 326 -519 -533 -529 0 0 
993 251 -535 203 -119 -100 349 -512 -533 -529 0 0 
994 240 -531 206 -128 -139 339 -517 -535 -529 0 0 
995 245 -527 196 -116 -85 317 -521 -534 -529 0 0 
996 236 -521 194 -84 -91 309 -522 -531 -531 0 0 
997 224 -499 211 -110 -127 341 -517 -536 -527 0 0 
998 222 -484 234 -127 -77 301 -511 -534 -530 0 0 
999 236 -501 244 -100 -103 318 -518 -532 -530 0 0 
1000 241 -525 233 -115 -121 357 -512 -536 -528 0 0 
1001 248 -536 227 -133 -109 321 -517 -534 -530 0 0 
1002 249 -541 226 -121 -90 325 -521 -534 -530 0 0 
1003 255 -549 216 -120 -108 319 -522 -535 -529 0 0 
1004 266 -551 204 -123 -128 340 -515 -534 -529 0 0 
1005 251 -537 197 -114 -111 340 -511 -533 -529 0 0 
1006 240 -526 206 -146 -105 331 -513 -536 -528 0 0 
1007 246 -525 200 -110 -108 346 -518 -533 -530 0 0 
1008 241 -525 189 -114 -115 335 -520 -536 -529 0 0 
1009 231 -502 200 -119 -101 331 -519 -534 -529 0 0 
1010 226 -487 223 -126 -99 315 -526 -535 -529 0 0 
1011 220 -490 238 -117 -101 312 -515 -534 -530 0 0 
1012 242 -509 239 -109 -114 314 -518 -534 -529 0 0 
1013 246 -527 230 -125 -114 325 -513 -537 -530 0 0 
1014 247 -531 227 -117 -98 318 -512 -533 -530 0 0 
1015 251 -543 219 -129 -116 330 -519 -536 -529 0 0 
1016 255 -546 207 -125 -115 341 -512 -535 -530 0 0 
1017 257 -540 194 -118 -121 337 -519 -535 -530 0 0 
1018 248 -528 202 -119 -107 335 -515 -536 -530 0 0 
1019 240 -527 204 -119 -110 318 -520 -536 -530 0 0 
1020 243 -534 194 -112 -98 320 -519 -536 -530 0 0 
1021 235 -511 195 -103 -114 327 -514 -536 -530 0 0 
1022 223 -490 219 -134 -123 338 -514 -537 -529 0 0 
1023 221 -488 237 -112 -84 327 -515 -534 -530 0 0 
1024 232 -512 242 -130 -121 347 -515 -538 -530 0 0 
1025 244 -526 231 -121 -111 332 -518 -536 -531 0 0 
1026 252 -531 225 -110 -81 300 -531 -536 -530 0 0 
1027 251 -538 220 -123 -126 324 -523 -537 -532 0 0 
1028 256 -553 209 -118 -122 309 -514 -536 -529 0 0 
1029 260 -543 196 -103 -68 280 -520 -536 -529 0 0 
1030 251 -534 197 -108 -111 307 -518 -535 -531 0 0 
1031 244 -514 198 -114 -105 299 -516 -537 -529 0 0 
1032 245 -519 190 -115 -82 283 -515 -536 -531 0 0 
1033 244 -504 186 -82 -110 315 -516 -535 -530 0 0 
1034 229 -486 199 -108 -100 309 -512 -536 -529 0 0 
1035 227 -473 225 -132 -89 302 -512 -536 -530 0 0 
1036 233 -487 233 -94 -107 330 -511 -534 -531 0 0 
1037 247 -512 226 -120 -95 312 -515 -537 -528 0 0 
1038 256 -516 221 -109 -89 308 -521 -534 -531 0 0 
1039 254 -528 220 -127 -129 318 -520 -535 -530 0 0 
1040 259 -536 207 -121 -98 313 -515 -538 -530 0 0 
1041 262 -535 195 -85 -78 278 -518 -533 -530 0 0 
1042 255 -529 193 -129 -108 324 -519 -537 -529 0 0 
1043 249 -516 200 -99 -102 304 -511 -534 -532 0 0 
1044 248 -525 197 -121 -89 316 -512 -538 -527 0 0 
1045 248 -512 187 -81 -100 327 -516 -534 -532 0 0 
1046 235 -493 200 -89 -83 311 -515 -536 -528 0 0 
1047 226 -480 224 -125 -107 314 -525 -535 -530 0 0 
1048 230 -485 235 -118 -89 323 -511 -537 -531 0 0 
1049 245 -507 232 -97 -77 291 -526 -535 -529 0 0 
1050 251 -520 225 -93 -88 305 -518 -534 -531 0 0 
1051 254 -523 224 -105 -105 314 -510 -536 -528 0 0 
1052 259 -541 216 -92 -93 327 -514 -533 -531 0 0 
1053 264 -538 199 -104 -90 322 -508 -536 -529 0 0 
1054 264 -533 195 -137 -105 317 -519 -537 -530 0 0 
1055 249 -516 201 -71 -64 300 -520 -534 -533 0 0 
1056 246 -510 201 -93 -91 303 -522 -534 -528 0 0 
1057 250 -514 189 -126 -122 314 -522 -538 -530 0 0 
1058 236 -497 197 -73 -67 298 -514 -533 -533 0 0 
1059 229 -478 220 -86 -100 315 -511 -533 -528 0 0 
1060 230 -477 238 -131 -112 336 -509 -538 -528 0 0 
1061 243 -498 237 -80 -69 303 -519 -533 -533 0 0 
1062 259 -513 227 -93 -89 329 -518 -536 -528 0 0 
1063 254 -525 224 -111 -99 309 -519 -535 -530 0 0 
1064 259 -531 218 -106 -95 308 -522 -533 -531 0 0 
1065 261 -540 204 -121 -99 321 -511 -537 -529 0 0 
1066 262 -535 194 -101 -114 314 -516 -533 -531 0 0 
1067 251 -518 200 -92 -102 340 -515 -533 -529 0 0 
1068 247 -514 203 -113 -110 331 -509 -537 -529 0 0 
1069 249 -522 191 -134 -113 343 -519 -536 -529 0 0 
1070 243 -506 192 -98 -69 312 -521 -535 -532 0 0 
1071 227 -481 212 -94 -96 317 -522 -533 -529 0 0 
1072 228 -482 235 -128 -116 327 -523 -536 -530 0 0 
1073 237 -499 239 -100 -83 304 -511 -535 -532 0 0 
1074 252 -520 234 -98 -75 316 -518 -535 -528 0 0 
1075 254 -528 229 -99 -85 314 -513 -534 -530 0 0 
1076 256 -535 225 -124 -110 332 -516 -538 -529 0 0 
1077 267 -552 213 -76 -89 329 -512 -533 -532 0 0 
1078 263 -541 198 -77 -96 335 -517 -534 -528 0 0 
1079 249 -527 204 -126 -95 329 -515 -537 -528 0 0 
1080 244 -524 208 -109 -112 331 -520 -533 -531 0 0 
1081 245 -523 200 -100 -81 290 -521 -536 -528 0 0 
1082 241 -510 196 -106 -110 337 -520 -534 -532 0 0 
1083 227 -488 213 -91 -120 339 -512 -534 -530 0 0 
1084 224 -479 239 -122 -84 329 -509 -536 -527 0 0 
1085 231 -497 245 -99 -111 330 -516 -535 -532 0 0 
1086 253 -519 236 -81 -89 331 -519 -534 -529 0 0 
1087 251 -522 232 -131 -108 324 -521 -537 -530 0 0 
1088 260 -539 226 -126 -107 330 -518 -537 -531 0 0 
1089 260 -543 217 -92 -99 316 -519 -535 -531 0 0 
1090 262 -544 199 -100 -84 315 -517 -535 -528 0 0 
1091 254 -536 201 -111 -113 323 -523 -534 -530 0 0 
1092 244 -526 207 -110 -104 336 -515 -537 -531 0 0 
1093 247 -526 200 -97 -78 322 -516 -534 -530 0 0 
1094 242 -521 191 -80 -106 331 -518 -535 -532 0 0 
1095 231 -502 210 -90 -84 335 -517 -534 -529 0 0 
1096 226 -495 231 -119 -87 326 -517 -536 -529 0 0 
1097 234 -503 241 -93 -88 320 -521 -536 -531 0 0 
1098 246 -525 234 -68 -84 315 -520 -533 -531 0 0 
1099 260 -530 228 -99 -102 326 -518 -536 -529 0 0 
1100 255 -534 224 -106 -88 297 -519 -535 -531 0 0 
1101 259 -548 215 -97 -102 323 -519 -535 -530 0 0 
1102 263 -545 198 -100 -112 326 -512 -533 -529 0 0 
1103 258 -535 196 -104 -76 297 -518 -536 -529 0 0 
1104 246 -524 206 -102 -84 307 -521 -534 -531 0 0 
1105 247 -529 200 -86 -105 326 -515 -534 -530 0 0 
1106 245 -522 192 -97 -112 329 -521 -534 -530 0 0 
1107 232 -499 204 -87 -76 327 -509 -533 -530 0 0 
1108 224 -493 227 -91 -79 305 -512 -534 -529 0 0 
1109 230 -498 242 -118 -78 321 -521 -535 -529 0 0 
1110 243 -522 236 -87 -105 322 -523 -533 -532 0 0 
1111 254 -530 229 -87 -100 345 -512 -533 -529 0 0 
1112 250 -538 227 -114 -121 333 -519 -534 -529 0 0 
1113 260 -552 217 -116 -90 319 -516 -535 -529 0 0 
1114 261 -543 202 -86 -115 336 -520 -531 -531 0 0 
1115 263 -538 200 -106 -112 349 -512 -537 -528 0 0 
1116 245 -523 206 -106 -95 334 -520 -533 -530 0 0 
1117 243 -521 200 -77 -89 334 -512 -534 -531 0 0 
1118 244 -518 188 -80 -116 334 -522 -534 -529 0 0 
1119 234 -491 196 -102 -106 341 -514 -534 -530 0 0 
1120 223 -471 218 -101 -103 353 -512 -535 -529 0 0 
1121 230 -485 231 -113 -90 337 -514 -535 -529 0 0 
1122 243 -500 231 -81 -84 352 -524 -534 -531 0 0 
1123 260 -518 223 -80 -100 330 -517 -534 -530 0 0 
1124 258 -527 221 -109 -116 344 -523 -536 -529 0 0 
1125 261 -536 210 -87 -91 311 -517 -535 -532 0 0 
1126 264 -535 199 -82 -93 330 -519 -533 -530 0 0 
1127 261 -532 195 -98 -121 335 -521 -535 -530 0 0 
1128 251 -521 204 -108 -106 353 -506 -535 -530 0 0 
1129 246 -526 205 -100 -86 327 -518 -534 -530 0 0 
1130 246 -524 192 -99 -93 338 -518 -536 -531 0 0 
1131 234 -506 203 -91 -120 354 -516 -533 -530 0 0 
1132 224 -486 223 -102 -97 340 -514 -536 -529 0 0 
1133 235 -497 243 -110 -84 326 -519 -535 -530 0 0 
1134 237 -516 239 -96 -93 338 -520 -535 -530 0 0 
1135 248 -529 229 -91 -85 312 -522 -532 -530 0 0 
1136 258 -533 227 -122 -96 323 -522 -535 -529 0 0 
1137 257 -542 220 -109 -121 325 -519 -535 -531 0 0 
1138 262 -550 206 -78 -81 306 -513 -534 -530 0 0 
1139 262 -540 195 -82 -110 332 -519 -534 -529 0 0 
1140 248 -534 204 -110 -111 332 -515 -535 -530 0 0 
1141 244 -524 204 -100 -78 305 -516 -536 -531 0 0 
1142 244 -529 196 -92 -108 333 -520 -534 -530 0 0 
1143 237 -511 201 -71 -126 355 -512 -533 -531 0 0 
1144 227 -487 221 -123 -91 330 -507 -537 -527 0 0 
1145 232 -490 242 -87 -100 352 -515 -531 -532 0 0 
1146 242 -514 242 -85 -94 357 -515 -537 -529 0 0 
1147 253 -528 234 -118 -108 339 -524 -534 -530 0 0 
1148 258 -534 228 -81 -88 324 -518 -535 -531 0 0 
1149 255 -544 223 -109 -115 335 -525 -534 -529 0 0 
1150 259 -548 208 -123 -110 340 -514 -535 -531 0 0 
1151 259 -541 197 -86 -90 338 -517 -533 -530 0 0 
1152 247 -527 204 -107 -111 327 -514 -535 -530 0 0 
1153 243 -524 204 -106 -99 343 -514 -535 -529 0 0 
1154 244 -522 195 -90 -105 332 -521 -534 -531 0 0 
1155 241 -508 198 -101 -114 361 -516 -535 -530 0 0 
1156 221 -487 218 -105 -90 326 -515 -536 -530 0 0 
1157 225 -493 238 -81 -91 335 -518 -534 -532 0 0 
1158 236 -510 240 -91 -97 328 -523 -535 -530 0 0 
1159 247 -521 232 -111 -84 320 -520 -536 -530 0 0 
1160 250 -536 230 -96 -104 340 -519 -533 -531 0 0 
1161 263 -540 222 -122 -95 343 -509 -537 -530 0 0 
1162 260 -549 208 -95 -84 330 -513 -533 -531 0 0 
1163 257 -551 195 -64 -70 326 -524 -534 -530 0 0 
1164 255 -536 200 -119 -93 318 -525 -536 -530 0 0 
1165 247 -528 206 -94 -81 316 -517 -535 -531 0 0 
1166 245 -529 195 -77 -92 307 -519 -535 -531 0 0 
1167 238 -517 197 -98 -85 309 -513 -536 -530 0 0 
1168 222 -490 216 -94 -70 310 -515 -535 -530 0 0 
1169 223 -493 237 -101 -97 313 -521 -535 -531 0 0 
1170 238 -511 242 -101 -86 321 -513 -537 -529 0 0 
1171 247 -528 230 -78 -97 324 -514 -533 -530 0 0 
1172 252 -528 228 -89 -89 347 -511 -536 -529 0 0 
1173 256 -542 221 -110 -113 350 -520 -535 -531 0 0 
1174 258 -550 207 -85 -76 324 -515 -535 -530 0 0 
1175 264 -549 193 -68 -74 304 -527 -535 -530 0 0 
1176 250 -531 202 -102 -123 344 -523 -535 -532 0 0 
1177 245 -528 205 -113 -96 339 -510 -537 -529 0 0 
1178 243 -529 195 -90 -94 310 -515 -534 -532 0 0 
1179 238 -513 192 -77 -91 344 -517 -536 -529 0 0 
1180 226 -494 212 -97 -71 304 -519 -535 -531 0 0 
1181 223 -490 236 -98 -91 327 -526 -536 -530 0 0 
1182 238 -507 238 -110 -97 321 -517 -537 -532 0 0 
1183 247 -521 229 -68 -73 301 -517 -535 -529 0 0 
1184 253 -536 223 -65 -60 273 -526 -534 -531 0 0 
1185 252 -546 221 -107 -94 296 -527 -537 -530 0 0 
1186 261 -555 205 -88 -106 297 -513 -537 -533 0 0 
1187 260 -554 194 -56 -90 281 -520 -534 -531 0 0 
1188 251 -540 200 -67 -72 308 -512 -534 -529 0 0 
1189 246 -535 205 -132 -126 347 -508 -536 -529 0 0 
1190 250 -537 196 -92 -108 335 -508 -535 -532 0 0 
1191 242 -525 193 -69 -73 332 -514 -534 -528 0 0 
1192 235 -494 213 -123 -106 351 -519 -537 -528 0 0 
1193 225 -496 236 -86 -93 346 -513 -533 -533 0 0 
1194 235 -509 237 -73 -91 326 -523 -535 -529 0 0 
1195 248 -524 230 -101 -81 310 -527 -537 -530 0 0 
1196 252 -536 225 -74 -70 293 -534 -533 -532 0 0 
1197 253 -541 223 -92 -100 305 -517 -533 -531 0 0 
1198 259 -554 208 -110 -136 322 -510 -536 -529 0 0 
1199 263 -546 197 -70 -76 290 -517 -532 -530 0 0 
1200 253 -533 199 -83 -99 338 -510 -534 -529 0 0 
1201 246 -528 204 -108 -125 335 -510 -536 -530 0 0 
1202 247 -537 195 -78 -88 309 -512 -533 -531 0 0 
1203 248 -517 193 -71 -75 319 -527 -534 -529 0 0 
1204 230 -505 211 -109 -74 320 -513 -535 -530 0 0 
1205 224 -496 234 -83 -98 346 -514 -532 -531 0 0 
1206 235 -511 240 -76 -81 317 -512 -536 -530 0 0 
1207 251 -528 233 -102 -79 328 -515 -534 -529 0 0 
1208 253 -541 226 -84 -73 321 -523 -532 -531 0 0 
1209 258 -545 224 -125 -99 322 -518 -535 -529 0 0 
1210 259 -554 210 -122 -137 349 -519 -534 -532 0 0 
1211 262 -553 198 -77 -101 342 -508 -534 -530 0 0 
1212 252 -546 199 -98 -93 337 -521 -532 -529 0 0 
1213 247 -531 204 -119 -104 346 -511 -536 -531 0 0 
1214 245 -533 194 -94 -99 324 -515 -534 -531 0 0 
1215 245 -531 191 -75 -89 327 -522 -533 -530 0 0 
1216 231 -503 210 -87 -108 332 -519 -534 -530 0 0 
1217 224 -494 234 -119 -92 330 -507 -534 -530 0 0 
1218 233 -508 241 -89 -71 314 -521 -534 -529 0 0 
1219 250 -524 233 -117 -80 308 -519 -536 -530 0 0 
1220 257 -537 231 -84 -109 350 -510 -530 -533 0 0 
1221 255 -538 223 -127 -109 342 -509 -537 -527 0 0 
1222 258 -547 211 -136 -91 343 -511 -536 -530 0 0 
1223 264 -548 198 -71 -88 339 -519 -533 -532 0 0 
1224 256 -535 201 -115 -109 346 -523 -536 -528 0 0 
1225 247 -528 205 -110 -101 340 -517 -535 -531 0 0 
1226 248 -529 198 -83 -72 319 -512 -533 -531 0 0 
1227 246 -524 192 -104 -101 333 -521 -534 -529 0 0 
1228 233 -496 212 -118 -101 336 -509 -536 -530 0 0 
1229 227 -491 233 -87 -88 344 -514 -533 -530 0 0 
1230 236 -500 244 -91 -73 327 -521 -537 -530 0 0 
1231 253 -525 238 -104 -116 358 -515 -536 -532 0 0 
1232 255 -533 232 -79 -98 337 -517 -533 -530 0 0 
1233 257 -541 228 -96 -71 320 -518 -535 -528 0 0 
1234 266 -548 213 -113 -92 340 -521 -536 -532 0 0 
1235 263 -547 202 -75 -88 320 -509 -535 -532 0 0 
1236 258 -531 200 -66 -103 326 -524 -533 -529 0 0 
1237 251 -527 209 -103 -91 328 -517 -536 -530 0 0 
1238 251 -530 202 -101 -79 316 -509 -535 -529 0 0 
1239 247 -514 196 -92 -101 333 -521 -533 -531 0 0 
1240 240 -493 213 -104 -91 321 -508 -536 -530 0 0 
1241 223 -483 236 -83 -76 328 -521 -531 -530 0 0 
1242 240 -492 246 -89 -68 328 -517 -537 -529 0 0 
1243 247 -510 237 -101 -114 370 -514 -533 -531 0 0 
1244 257 -526 232 -73 -88 332 -509 -535 -530 0 0 
1245 255 -527 228 -110 -63 309 -523 -535 -527 0 0 
1246 265 -537 219 -135 -91 342 -518 -535 -533 0 0 
1247 261 -541 200 -63 -92 322 -511 -533 -531 0 0 
1248 256 -533 204 -94 -85 318 -527 -535 -529 0 0 
1249 251 -522 208 -116 -84 331 -514 -536 -531 0 0 
1250 254 -532 206 -92 -116 336 -510 -534 -531 0 0 
1251 244 -517 198 -90 -71 331 -516 -536 -529 0 0 
1252 231 -494 215 -88 -65 310 -516 -533 -531 0 0 
1253 228 -483 237 -105 -80 318 -512 -536 -529 0 0 
1254 236 -494 249 -82 -87 316 -526 -533 -532 0 0 
1255 247 -512 237 -87 -76 339 -511 -537 -529 0 0 
1256 255 -530 235 -95 -85 327 -516 -533 -529 0 0 
1257 254 -532 229 -103 -63 297 -521 -536 -529 0 0 
1258 259 -533 220 -119 -85 309 -521 -534 -531 0 0 
1259 265 -536 204 -71 -106 337 -509 -535 -531 0 0 
1260 255 -525 207 -97 -83 332 -512 -534 -528 0 0 
1261 253 -517 211 -128 -86 340 -512 -536 -529 0 0 
1262 245 -520 206 -108 -88 340 -515 -533 -531 0 0 
1263 245 -520 206 -108 -88 340 -515 -533 -531 0 0 
1264 247 -514 197 -85 -102 339 -523 -534 -531 0 0 
1265 235 -487 217 -112 -76 339 -517 -535 -528 0 0 
1266 226 -478 238 -105 -82 311 -521 -534 -532 0 0 
1267 229 -496 250 -86 -79 326 -512 -535 -530 0 0 
1268 247 -509 241 -94 -97 345 -515 -534 -530 0 0 
1269 249 -520 235 -119 -82 331 -515 -536 -530 0 0 
1270 262 -529 230 -102 -62 334 -518 -534 -530 0 0 
1271 264 -538 216 -107 -98 318 -520 -535 -531 0 0 
1272 265 -536 207 -101 -92 346 -518 -534 -530 0 0 
1273 253 -525 201 -101 -89 319 -522 -535 -531 0 0 
1274 247 -520 212 -120 -85 316 -515 -536 -530 0 0 
1275 244 -525 205 -93 -82 303 -522 -533 -531 0 0 
1276 244 -515 200 -104 -106 341 -516 -534 -530 0 0 
1277 228 -494 215 -113 -95 345 -506 -535 -531 0 0 
1278 229 -482 239 -91 -73 311 -516 -535 -531 0 0 
1279 238 -499 245 -82 -51 313 -523 -535 -530 0 0 
1280 247 -511 242 -109 -109 350 -515 -537 -531 0 0 
1281 251 -530 233 -91 -94 330 -517 -534 -531 0 0 
1282 255 -528 234 -101 -61 314 -520 -536 -529 0 0 
1283 259 -546 218 -105 -114 348 -518 -537 -532 0 0 
1284 265 -537 205 -74 -93 333 -512 -533 -531 0 0 
1285 254 -536 202 -86 -77 311 -523 -536 -529 0 0 
1286 246 -522 210 -114 -94 311 -517 -537 -532 0 0 
1287 249 -522 204 -79 -77 315 -519 -533 -532 0 0 
1288 243 -514 198 -83 -94 315 -523 -535 -530 0 0 
1289 230 -488 212 -123 -92 321 -506 -538 -531 0 0 
1290 224 -487 239 -68 -62 315 -514 -533 -532 0 0 
1291 235 -503 247 -78 -61 316 -522 -536 -529 0 0 
1292 248 -520 237 -109 -95 330 -522 -537 -532 0 0 
1293 262 -530 231 -62 -62 291 -518 -534 -532 0 0 
1294 259 -534 227 -78 -50 268 -534 -535 -529 0 0 
1295 260 -541 216 -119 -74 298 -521 -536 -532 0 0 
1296 261 -546 202 -83 -100 310 -506 -532 -531 0 0 
1297 256 -532 201 -80 -111 313 -518 -536 -529 0 0 
1298 243 -518 211 -112 -65 311 -506 -536 -528 0 0 
1299 247 -526 204 -86 -94 332 -520 -532 -532 0 0 
1300 244 -520 196 -97 -99 340 -513 -537 -529 0 0 
1301 229 -493 215 -114 -99 326 -514 -535 -530 0 0 
1302 227 -480 239 -70 -85 330 -518 -534 -531 0 0 
1303 235 -498 249 -96 -85 335 -513 -535 -529 0 0 
1304 245 -512 240 -126 -109 332 -516 -537 -530 0 0 
1305 252 -532 233 -71 -68 308 -514 -534 -531 0 0 
1306 256 -536 229 -104 -85 314 -523 -535 -529 0 0 
1307 261 -540 218 -122 -115 331 -521 -535 -532 0 0 
1308 262 -544 205 -80 -93 324 -510 -533 -531 0 0 
1309 260 -531 204 -106 -103 317 -516 -536 -528 0 0 
1310 251 -523 208 -104 -70 306 -520 -535 -531 0 0 
1311 247 -527 204 -110 -72 305 -520 -535 -531 0 0 
1312 244 -515 197 -117 -131 343 -517 -536 -530 0 0 
1313 231 -488 215 -79 -83 307 -514 -535 -531 0 0 
1314 223 -486 237 -77 -51 283 -523 -534 -528 0 0 
1315 236 -505 247 -120 -105 328 -522 -536 -530 0 0 
1316 247 -516 237 -74 -103 321 -509 -533 -533 0 0 
1317 255 -532 233 -65 -75 304 -517 -533 -528 0 0 
1318 257 -533 229 -131 -88 326 -518 -535 -529 0 0 
1319 262 -545 217 -113 -121 351 -510 -534 -532 0 0 
1320 264 -540 202 -80 -96 347 -508 -533 -529 0 0 
1321 259 -530 205 -121 -89 331 -523 -535 -529 0 0 
1322 249 -527 210 -120 -97 344 -518 -536 -531 0 0 
1323 248 -526 206 -93 -89 326 -516 -534 -531 0 0 
1324 247 -512 199 -97 -90 354 -516 -534 -529 0 0 
1325 229 -497 215 -107 -103 336 -511 -534 -531 0 0 
1326 233 -485 237 -112 -79 332 -520 -534 -530 0 0 
1327 235 -500 244 -85 -91 315 -526 -534 -532 0 0 
1328 252 -515 239 -103 -110 353 -512 -533 -530 0 0 
1329 256 -530 233 -113 -98 338 -513 -534 -530 0 0 
1330 264 -537 234 -119 -77 327 -519 -536 -529 0 0 
1331 261 -546 216 -86 -92 342 -519 -533 -531 0 0 
1332 265 -540 204 -104 -99 349 -514 -535 -529 0 0 
1333 257 -531 204 -106 -93 326 -521 -535 -530 0 0 
1334 253 -524 209 -88 -59 294 -521 -536 -530 0 0 
1335 255 -526 197 -80 -91 311 -526 -533 -531 0 0 
1336 244 -513 201 -95 -93 317 -519 -535 -530 0 0 
1337 229 -488 215 -97 -94 322 -514 -532 -530 0 0 
1338 232 -486 240 -107 -82 322 -506 -535 -529 0 0 
1339 235 -504 246 -105 -76 314 -513 -536 -530 0 0 
1340 249 -518 239 -88 -93 342 -519 -532 -531 0 0 
1341 256 -526 230 -110 -107 342 -516 -536 -529 0 0 
1342 259 -538 227 -126 -96 315 -522 -537 -529 0 0 
1343 263 -543 214 -74 -88 322 -518 -533 -532 0 0 
1344 265 -541 202 -86 -115 343 -512 -535 -528 0 0 
1345 257 -542 205 -118 -120 330 -517 -536 -529 0 0 
1346 245 -530 212 -113 -65 314 -513 -534 -531 0 0 
1347 249 -524 201 -95 -117 356 -517 -535 -530 0 0 
1348 245 -512 199 -101 -105 339 -514 -535 -530 0 0 
1349 232 -489 220 -95 -70 314 -518 -535 -530 0 0 
1350 230 -487 241 -107 -102 331 -518 -535 -531 0 0 
1351 240 -506 245 -92 -92 334 -513 -535 -530 0 0 
1352 254 -519 238 -78 -95 310 -524 -534 -530 0 0 
1353 255 -527 235 -124 -101 327 -509 -534 -530 0 0 
1354 266 -542 226 -133 -133 337 -517 -538 -530 0 0 
1355 266 -548 217 -108 -81 316 -515 -537 -531 0 0 
1356 265 -541 202 -78 -102 349 -521 -531 -531 0 0 
1357 255 -528 211 -117 -140 350 -512 -537 -529 0 0 
1358 248 -528 212 -124 -96 317 -516 -537 -530 0 0 
1359 251 -519 202 -88 -86 328 -522 -531 -532 0 0 
1360 242 -507 201 -112 -114 354 -514 -538 -530 0 0 
1361 229 -484 223 -106 -93 318 -510 -534 -532 0 0 
1362 230 -488 242 -71 -67 310 -524 -533 -529 0 0 
1363 241 -504 247 -115 -104 321 -516 -538 -531 0 0 
1364 256 -517 234 -97 -94 331 -516 -533 -531 0 0 
1365 264 -530 234 -73 -68 303 -522 -535 -530 0 0 
1366 261 -534 225 -130 -102 325 -516 -537 -529 0 0 
1367 268 -541 214 -83 -103 328 -514 -531 -532 0 0 
1368 267 -537 203 -79 -86 335 -510 -537 -529 0 0 
1369 258 -523 211 -111 -85 336 -510 -533 -529 0 0 
1370 251 -520 211 -109 -82 326 -523 -536 -529 0 0 
1371 252 -521 204 -114 -66 320 -518 -534 -531 0 0 
1372 242 -508 204 -93 -99 353 -522 -534 -531 0 0 
1373 230 -491 228 -93 -77 302 -513 -536 -529 0 0 
1374 231 -490 249 -103 -82 324 -520 -532 -529 0 0 
1375 249 -506 247 -98 -95 332 -512 -536 -531 0 0 
1376 256 -519 238 -89 -76 344 -512 -533 -529 0 0 
1377 265 -533 234 -100 -79 326 -520 -535 -529 0 0 
1378 257 -536 228 -115 -89 335 -519 -535 -531 0 0 
1379 268 -548 210 -74 -90 328 -519 -533 -531 0 0 
1380 263 -539 204 -90 -88 324 -518 -533 -529 0 0 
1381 252 -520 210 -119 -85 317 -520 -536 -530 0 0 
1382 249 -519 210 -96 -92 330 -518 -533 -531 0 0 
1383 250 -520 198 -90 -117 354 -510 -532 -530 0 0 
1384 239 -501 207 -115 -105 357 -507 -536 -528 0 0 
1385 230 -487 228 -94 -67 342 -512 -534 -530 0 0 
1386 235 -488 248 -97 -93 356 -519 -534 -531 0 0 
1387 247 -513 242 -113 -107 359 -523 -537 -529 0 0 
1388 257 -521 234 -66 -59 303 -526 -532 -532 0 0 
1389 258 -532 230 -96 -95 334 -526 -534 -529 0 0 
1390 266 -540 224 -138 -116 327 -516 -538 -530 0 0 
1391 267 -543 209 -64 -66 317 -512 -533 -532 0 0 
1392 261 -533 203 -87 -95 338 -513 -534 -529 0 0 
1393 255 -524 211 -131 -114 353 -512 -538 -529 0 0 
1394 248 -521 213 -103 -69 323 -515 -532 -532 0 0 
1395 253 -517 197 -114 -106 361 -525 -536 -528 0 0 
1396 236 -496 210 -136 -116 345 -511 -539 -531 0 0 
1397 236 -482 233 -84 -82 319 -521 -532 -532 0 0 
1398 234 -493 247 -92 -86 318 -523 -535 -529 0 0 
1399 251 -514 241 -123 -118 332 -520 -538 -531 0 0 
1400 257 -521 236 -110 -86 301 -519 -534 -531 0 0 
1401 257 -534 234 -92 -99 338 -515 -534 -529 0 0 
1402 261 -541 223 -119 -123 341 -508 -535 -529 0 0 
1403 267 -541 210 -122 -95 345 -508 -536 -530 0 0 
1404 261 -529 204 -82 -98 354 -516 -534 -530 0 0 
1405 250 -522 212 -108 -91 341 -520 -536 -530 0 0 
1406 250 -527 205 -108 -67 309 -526 -535 -531 0 0 
1407 253 -519 198 -92 -99 329 -531 -533 -533 0 0 
1408 233 -499 211 -96 -109 317 -515 -536 -531 0 0 
1409 227 -476 238 -91 -84 304 -515 -534 -530 0 0 
1410 238 -492 249 -107 -98 318 -511 -534 -530 0 0 
1411 249 -511 241 -116 -103 345 -501 -535 -529 0 0 
1412 256 -524 234 -95 -87 318 -522 -534 -529 0 0 
1413 260 -527 231 -90 -47 316 -525 -534 -530 0 0 
1414 260 -536 217 -111 -139 359 -518 -534 -533 0 0 
1415 267 -542 201 -83 -103 320 -520 -535 -530 0 0 
1416 261 -526 205 -83 -50 281 -527 -533 -529 0 0 
1417 253 -518 211 -115 -118 337 -520 -534 -533 0 0 
1418 251 -526 204 -116 -109 323 -506 -536 -529 0 0 
1419 245 -514 200 -94 -108 310 -520 -533 -531 0 0 
1420 233 -493 217 -85 -77 317 -499 -536 -528 0 0 
1421 226 -482 242 -105 -111 344 -519 -532 -529 0 0 
1422 240 -502 247 -98 -86 349 -516 -536 -531 0 0 
1423 253 -516 240 -109 -70 322 -520 -534 -529 0 0 
1424 259 -525 233 -82 -111 328 -525 -534 -532 0 0 
1425 265 -533 231 -91 -93 339 -517 -535 -529 0 0 
1426 265 -545 218 -108 -110 339 -518 -534 -531 0 0 
1427 265 -545 205 -89 -90 327 -510 -534 -530 0 0 
1428 257 -529 206 -98 -78 319 -515 -533 -529 0 0 
1429 254 -524 211 -116 -105 342 -519 -535 -531 0 0 
1430 247 -523 203 -100 -103 332 -512 -534 -531 0 0 
1431 242 -505 201 -101 -87 338 -519 -534 -529 0 0 
1432 229 -491 220 -93 -78 323 -518 -533 -530 0 0 
1433 228 -489 242 -103 -81 314 -523 -535 -530 0 0 
1434 243 -510 246 -80 -91 297 -525 -532 -532 0 0 
1435 251 -517 237 -82 -73 306 -517 -534 -529 0 0 
1436 254 -531 237 -100 -111 328 -517 -534 -531 0 0 
1437 258 -544 230 -93 -89 330 -505 -533 -529 0 0 
1438 265 -541 216 -105 -96 327 -511 -534 -528 0 0 
1439 264 -542 203 -96 -97 353 -509 -535 -530 0 0 
1440 253 -524 209 -96 -87 335 -515 -534 -529 0 0 
1441 246 -526 210 -127 -85 328 -524 -536 -529 0 0 
1442 249 -521 199 -81 -109 329 -526 -533 -533 0 0 
1443 241 -501 205 -92 -115 346 -518 -534 -529 0 0 
1444 234 -482 226 -112 -100 334 -504 -535 -529 0 0 
1445 232 -486 246 -121 -89 330 -510 -535 -530 0 0 
1446 243 -505 244 -73 -59 317 -517 -535 -530 0 0 
1447 255 -519 237 -115 -81 326 -525 -535 -530 0 0 
1448 262 -536 232 -124 -120 360 -516 -537 -532 0 0 
1449 260 -537 223 -83 -64 300 -517 -534 -529 0 0 
1450 267 -543 212 -105 -73 302 -524 -535 -530 0 0 
1451 262 -531 204 -100 -102 325 -518 -535 -531 0 0 
1452 255 -527 212 -105 -87 308 -512 -535 -530 0 0 
1453 249 -524 213 -106 -77 320 -513 -536 -530 0 0 
1454 251 -521 198 -80 -94 339 -510 -534 -531 0 0 
1455 238 -498 211 -114 -91 331 -509 -535 -528 0 0 
1456 228 -486 235 -118 -65 299 -524 -537 -529 0 0 
1457 234 -489 250 -95 -70 316 -523 -534 -533 0 0 
1458 246 -509 244 -89 -120 343 -515 -535 -531 0 0 
1459 259 -528 236 -105 -77 309 -512 -536 -528 0 0 
1460 260 -533 234 -108 -69 298 -522 -535 -531 0 0 
1461 263 -540 224 -105 -73 316 -516 -536 -530 0 0 
1462 269 -543 209 -90 -104 331 -519 -535 -531 0 0 
1463 261 -529 205 -82 -72 316 -512 -536 -530 0 0 
1464 252 -520 214 -92 -80 303 -521 -535 -530 0 0 
1465 250 -528 211 -95 -93 332 -510 -535 -531 0 0 
1466 249 -514 201 -80 -102 335 -516 -533 -530 0 0 
1467 238 -492 216 -121 -77 333 -513 -538 -528 0 0 
1468 228 -485 239 -73 -70 325 -520 -533 -531 0 0 
1469 240 -490 250 -80 -84 320 -518 -536 -530 0 0 
1470 250 -511 242 -108 -94 321 -518 -536 -529 0 0 
1471 257 -522 236 -69 -81 305 -512 -533 -530 0 0 
1472 263 -531 233 -100 -76 313 -520 -534 -528 0 0 
1473 264 -532 222 -134 -103 323 -516 -536 -531 0 0 
1474 267 -538 206 -57 -90 312 -508 -534 -532 0 0 
1475 261 -527 209 -90 -69 315 -523 -534 -528 0 0 
1476 256 -524 216 -114 -84 319 -515 -535 -532 0 0 
1477 251 -522 207 -99 -111 341 -512 -533 -530 0 0 
1478 248 -510 203 -100 -80 328 -517 -533 -530 0 0 
1479 234 -488 222 -101 -73 336 -508 -534 -530 0 0 
1480 226 -483 244 -94 -91 337 -519 -534 -530 0 0 
1481 242 -499 251 -96 -91 345 -515 -533 -530 0 0 
1482 254 -511 242 -113 -88 330 -520 -537 -529 0 0 
1483 256 -528 235 -108 -87 318 -524 -534 -531 0 0 
1484 258 -531 232 -92 -77 309 -518 -534 -530 0 0 
1485 265 -535 218 -123 -120 326 -521 -535 -530 0 0 
1486 270 -536 207 -100 -103 333 -511 -534 -531 0 0 
1487 253 -523 211 -97 -88 335 -512 -533 -529 0 0 
1488 249 -520 217 -113 -95 350 -512 -536 -530 0 0 
1489 250 -524 205 -101 -87 331 -515 -534 -531 0 0 
1490 241 -504 209 -95 -67 346 -522 -535 -529 0 0 
1491 232 -486 229 -80 -94 320 -512 -534 -532 0 0 
1492 233 -484 250 -102 -99 349 -519 -536 -529 0 0 
1493 245 -500 248 -89 -86 339 -513 -534 -531 0 0 
1494 253 -516 240 -100 -81 318 -518 -536 -529 0 0 
1495 258 -527 237 -103 -100 335 -527 -534 -531 0 0 
1496 265 -534 227 -108 -85 335 -512 -537 -531 0 0 
1497 270 -540 217 -88 -92 336 -518 -534 -530 0 0 
1498 265 -529 206 -80 -96 331 -516 -534 -530 0 0 
1499 253 -523 212 -114 -99 338 -514 -537 -529 0 0 
1500 251 -522 215 -84 -77 312 -516 -534 -532 0 0 
1501 250 -518 202 -101 -89 336 -522 -535 -530 0 0 
1502 238 -499 210 -103 -92 331 -514 -536 -531 0 0 
1503 229 -478 236 -83 -51 300 -526 -534 -530 0 0 
1504 234 -485 250 -88 -92 320 -518 -533 -531 0 0 
1505 254 -510 245 -114 -122 343 -514 -537 -529 0 0 
1506 257 -522 236 -74 -62 299 -513 -534 -531 0 0 
1507 258 -531 239 -89 -70 336 -517 -533 -529 0 0 
1508 263 -536 224 -122 -106 342 -513 -537 -530 0 0 
1509 268 -541 211 -71 -72 322 -515 -534 -532 0 0 
1510 262 -529 206 -74 -66 310 -523 -535 -529 0 0 
1511 252 -525 218 -116 -82 318 -522 -535 -530 0 0 
1512 249 -526 212 -112 -111 336 -516 -534 -532 0 0 
1513 249 -520 203 -94 -94 324 -507 -535 -530 0 0 
1514 234 -493 217 -86 -87 342 -516 -536 -529 0 0 
1515 230 -482 241 -93 -58 322 -513 -534 -530 0 0 
1516 236 -493 250 -111 -84 344 -521 -536 -529 0 0 
1517 251 -512 244 -98 -97 314 -522 -535 -532 0 0 
1518 259 -525 236 -81 -79 327 -518 -535 -528 0 0 
1519 261 -531 231 -109 -84 314 -528 -536 -531 0 0 
1520 263 -542 220 -102 -86 306 -513 -535 -533 0 0 
1521 269 -537 206 -88 -110 324 -516 -533 -529 0 0 
1522 262 -525 209 -108 -90 321 -515 -537 -530 0 0 
1523 252 -520 216 -99 -83 332 -511 -535 -530 0 0 
1524 251 -520 206 -88 -95 333 -519 -534 -531 0 0 
1525 248 -512 203 -107 -82 312 -516 -537 -530 0 0 
1526 233 -486 224 -92 -78 332 -522 -534 -531 0 0 
1527 231 -482 247 -70 -84 335 -515 -534 -531 0 0 
1528 244 -500 248 -100 -89 326 -519 -537 -528 0 0 
1529 254 -517 241 -77 -76 315 -513 -534 -533 0 0 
1530 259 -528 236 -82 -87 339 -523 -533 -528 0 0 
1531 260 -533 232 -134 -84 320 -521 -537 -531 0 0 
1532 266 -546 217 -60 -84 340 -515 -531 -533 0 0 
1533 271 -536 205 -79 -100 339 -515 -536 -529 0 0 
1534 257 -521 212 -121 -86 336 -512 -536 -530 0 0 
1535 251 -518 211 -93 -56 321 -523 -534 -532 0 0 
1536 255 -522 203 -93 -102 333 -520 -535 -532 0 0 
1537 246 -505 208 -92 -109 347 -516 -536 -530 0 0 
1538 231 -484 229 -86 -53 295 -521 -532 -531 0 0 
1539 234 -486 248 -108 -81 318 -523 -536 -530 0 0 
1540 249 -510 248 -88 -96 326 -514 -533 -532 0 0 
1541 258 -524 237 -98 -68 315 -512 -534 -529 0 0 
1542 261 -529 235 -118 -100 347 -517 -536 -530 0 0 
1543 266 -538 224 -106 -84 346 -510 -534 -530 0 0 
1544 270 -547 211 -87 -69 324 -519 -534 -531 0 0 
1545 265 -538 204 -86 -83 320 -524 -534 -531 0 0 
1546 259 -525 210 -116 -97 328 -528 -536 -530 0 0 
1547 255 -521 211 -112 -79 313 -514 -533 -532 0 0 
1548 252 -516 199 -90 -77 324 -516 -535 -529 0 0 
1549 239 -499 213 -93 -68 310 -510 -535 -531 0 0 
1550 232 -491 237 -69 -76 330 -516 -531 -530 0 0 
1551 246 -495 248 -110 -86 322 -517 -538 -529 0 0 
1552 256 -513 242 -87 -74 325 -518 -533 -531 0 0 
1553 261 -527 234 -73 -67 311 -522 -535 -529 0 0 
1554 262 -533 233 -110 -98 329 -522 -536 -531 0 0 
1555 269 -546 222 -86 -98 326 -516 -532 -532 0 0 
1556 273 -544 208 -90 -96 341 -508 -535 -530 0 0 
1557 263 -529 204 -94 -75 342 -507 -534 -529 0 0 
1558 253 -520 213 -92 -91 333 -520 -534 -531 0 0 
1559 253 -531 205 -111 -61 340 -520 -535 -530 0 0 
1560 252 -518 196 -112 -97 334 -522 -535 -534 0 0 
1561 237 -493 218 -58 -82 324 -513 -534 -530 0 0 
1562 231 -483 238 -101 -68 308 -528 -535 -528 0 0 
1563 245 -502 248 -126 -68 328 -514 -536 -533 0 0 
1564 257 -522 235 -70 -78 320 -521 -532 -530 0 0 
1565 263 -528 234 -99 -71 307 -518 -535 -528 0 0 
1566 265 -535 228 -104 -101 331 -516 -532 -530 0 0 
1567 270 -547 217 -76 -90 334 -509 -534 -531 0 0 
1568 272 -540 202 -99 -72 328 -517 -534 -528 0 0 
1569 262 -529 210 -116 -82 338 -520 -534 -531 0 0 
1570 255 -530 210 -96 -87 337 -517 -534 -530 0 0 
1571 254 -526 200 -89 -80 327 -522 -534 -531 0 0 
1572 247 -512 202 -74 -78 334 -517 -533 -530 0 0 
1573 237 -487 224 -110 -84 332 -519 -533 -529 0 0 
1574 235 -492 245 -106 -85 333 -517 -535 -530 0 0 
1575 247 -513 243 -80 -92 349 -512 -533 -531 0 0 
1576 265 -528 236 -81 -87 345 -518 -534 -528 0 0 
1577 261 -532 234 -101 -84 337 -523 -533 -530 0 0 
1578 265 -543 223 -94 -119 363 -516 -534 -531 0 0 
1579 272 -542 210 -107 -110 355 -512 -536 -529 0 0 
1580 275 -544 199 -72 -72 320 -524 -532 -531 0 0 
1581 257 -531 210 -87 -88 335 -522 -535 -530 0 0 
1582 253 -528 208 -117 -109 337 -516 -535 -531 0 0 
1583 254 -523 199 -80 -89 347 -512 -536 -530 0 0 
1584 242 -501 208 -78 -80 346 -509 -533 -530 0 0 
1585 232 -485 227 -96 -104 360 -520 -535 -529 0 0 
1586 238 -500 245 -98 -83 326 -521 -536 -530 0 0 
1587 253 -520 238 -80 -70 322 -523 -533 -530 0 0 
1588 262 -532 232 -87 -87 313 -526 -535 -530 0 0 
1589 266 -535 227 -104 -108 341 -516 -535 -530 0 0 
1590 270 -550 218 -103 -104 326 -513 -534 -530 0 0 
1591 270 -547 202 -94 -82 330 -513 -534 -529 0 0 
1592 266 -539 202 -110 -109 328 -522 -534 -530 0 0 
1593 256 -521 207 -100 -114 361 -506 -536 -531 0 0 
1594 259 -524 202 -84 -100 353 -513 -535 -529 0 0 
1595 252 -516 196 -95 -79 341 -521 -535 -530 0 0 
1596 240 -493 213 -85 -88 337 -527 -534 -530 0 0 
1597 235 -485 236 -99 -104 337 -520 -535 -532 0 0 
1598 243 -501 244 -99 -116 351 -512 -535 -530 0 0 
1599 259 -522 234 -89 -59 291 -517 -536 -530 0 0 
1600 266 -527 233 -84 -76 319 -526 -533 -531 0 0 
1601 266 -538 228 -96 -102 335 -517 -536 -530 0 0 
1602 271 -544 214 -96 -109 339 -511 -535 -531 0 0 
1603 272 -542 200 -76 -69 312 -516 -535 -530 0 0 
1604 264 -532 203 -93 -74 307 -525 -535 -530 0 0 
1605 255 -531 208 -81 -111 334 -517 -534 -531 0 0 
1606 257 -535 198 -88 -97 325 -518 -535 -530 0 0 
1607 249 -516 199 -91 -77 329 -509 -535 -532 0 0 
1608 235 -491 221 -87 -92 344 -511 -534 -530 0 0 
1609 235 -487 242 -95 -77 313 -522 -535 -529 0 0 
1610 248 -506 241 -88 -76 319 -525 -534 -531 0 0 
1611 264 -527 234 -101 -103 327 -518 -536 -530 0 0 
1612 268 -532 232 -89 -101 335 -512 -534 -531 0 0 
1613 266 -541 222 -86 -91 344 -507 -534 -529 0 0 
1614 274 -555 207 -114 -108 336 -517 -536 -529 0 0 
1615 271 -539 198 -88 -71 295 -526 -535 -532 0 0 
1616 259 -525 204 -89 -98 315 -533 -535 -532 0 0 
1617 262 -524 208 -83 -120 339 -512 -536 -532 0 0 
1618 256 -530 197 -74 -85 318 -512 -533 -529 0 0 
1619 245 -507 206 -93 -85 331 -511 -536 -530 0 0 
1620 237 -489 228 -111 -103 343 -510 -535 -530 0 0 
1621 242 -494 243 -75 -67 318 -517 -536 -530 0 0 
1622 255 -516 240 -76 -72 321 -522 -534 -531 0 0 
1623 262 -533 234 -99 -112 345 -520 -535 -530 0 0 
1624 262 -534 227 -102 -92 336 -513 -535 -531 0 0 
1625 270 -545 219 -97 -107 353 -512 -534 -531 0 0 
1626 273 -548 204 -106 -105 363 -511 -537 -529 0 0 
1627 272 -540 199 -88 -93 340 -519 -533 -530 0 0 
1628 259 -535 209 -86 -92 331 -522 -536 -530 0 0 
1629 258 -532 204 -91 -108 325 -525 -535 -530 0 0 
1630 253 -523 194 -84 -97 318 -522 -537 -531 0 0 
1631 240 -497 211 -61 -76 307 -516 -532 -531 0 0 
1632 236 -488 239 -87 -104 320 -517 -535 -529 0 0 
1633 249 -506 246 -116 -96 325 -511 -535 -530 0 0 
1634 259 -519 240 -77 -87 339 -508 -534 -530 0 0 
1635 264 -529 235 -106 -99 353 -514 -534 -529 0 0 
1636 264 -546 232 -108 -94 345 -519 -536 -531 0 0 
1637 269 -555 216 -103 -109 342 -522 -533 -530 0 0 
1638 276 -547 202 -93 -103 335 -523 -536 -530 0 0 
1639 259 -528 202 -91 -81 307 -519 -535 -530 0 0 
1640 253 -524 208 -74 -96 337 -515 -532 -530 0 0 
1641 258 -529 196 -101 -117 334 -516 -537 -529 0 0 
1642 247 -516 196 -99 -95 329 -515 -533 -531 0 0 
1643 235 -488 218 -64 -78 329 -513 -532 -530 0 0 
1644 238 -484 239 -101 -108 353 -516 -535 -528 0 0 
1645 244 -505 243 -86 -86 341 -512 -533 -530 0 0 
1646 259 -523 234 -74 -86 331 -521 -535 -529 0 0 
1647 260 -535 230 -107 -104 333 -515 -536 -530 0 0 
1648 262 -539 224 -70 -109 344 -521 -531 -530 0 0 
1649 269 -553 210 -111 -91 347 -512 -538 -528 0 0 
1650 271 -547 199 -86 -104 349 -519 -533 -532 0 0 
1651 257 -535 207 -52 -80 332 -513 -534 -530 0 0 
1652 253 -533 208 -95 -101 329 -522 -535 -527 0 0 
1653 253 -528 197 -60 -87 328 -517 -535 -533 0 0 
1654 243 -504 203 -43 -82 340 -514 -532 -530 0 0 
1655 232 -488 225 -80 -102 352 -514 -537 -528 0 0 
1656 235 -493 244 -49 -62 321 -519 -533 -532 0 0 
1657 257 -512 242 -72 -84 330 -521 -534 -529 0 0 
1658 260 -528 232 -137 -109 334 -519 -536 -527 0 0 
1659 263 -536 229 -141 -97 335 -510 -536 -533 0 0 
1660 265 -543 222 -49 -91 352 -517 -530 -529 0 0 
1661 272 -553 206 -111 -128 357 -513 -538 -526 0 0 
1662 268 -539 202 -143 -111 339 -513 -535 -530 0 0 
1663 253 -527 210 -34 -99 343 -521 -532 -533 0 0 
1664 255 -527 202 -62 -97 349 -512 -537 -527 0 0 
1665 250 -519 197 -85 -115 310 -529 -535 -531 0 0 
1666 242 -501 210 -68 -85 316 -518 -533 -532 0 0 
1667 231 -480 238 -93 -132 340 -515 -537 -529 0 0 
1668 244 -490 244 -91 -101 319 -512 -535 -529 0 0 
1669 252 -518 241 -92 -71 324 -516 -532 -528 0 0 
1670 267 -528 232 -118 -134 350 -514 -537 -529 0 0 
1671 263 -536 231 -96 -124 353 -510 -535 -530 0 0 
1672 263 -536 231 -96 -124 353 -510 -535 -530 0 0 
1673 272 -543 218 -78 -84 332 -520 -533 -529 0 0 
1674 269 -546 201 -113 -110 343 -517 -537 -528 0 0 
1675 265 -537 203 -102 -98 322 -519 -533 -531 0 0 
1676 256 -527 212 -79 -99 318 -523 -534 -529 0 0 
1677 251 -526 205 -91 -128 349 -509 -535 -531 0 0 
1678 250 -513 201 -95 -110 352 -511 -535 -529 0 0 
1679 237 -497 219 -69 -68 332 -511 -531 -530 0 0 
1680 234 -488 241 -125 -110 371 -518 -537 -527 0 0 
1681 251 -504 249 -103 -118 353 -514 -535 -532 0 0 
1682 255 -524 237 -54 -67 333 -518 -533 -528 0 0 
1683 262 -526 229 -110 -98 329 -530 -537 -528 0 0 
1684 265 -534 228 -118 -101 313 -520 -536 -531 0 0 
1685 270 -549 215 -74 -94 307 -519 -533 -530 0 0 
1686 269 -540 203 -89 -106 327 -511 -537 -529 0 0 
1687 264 -529 210 -72 -84 321 -504 -535 -530 0 0 
1688 252 -519 213 -74 -82 327 -515 -535 -529 0 0 
1689 261 -517 200 -98 -119 357 -513 -539 -531 0 0 
1690 245 -506 206 -64 -100 344 -512 -534 -531 0 0 
1691 239 -483 227 -55 -76 331 -522 -538 -528 0 0 
1692 235 -488 247 -95 -106 320 -524 -537 -531 0 0 
1693 249 -501 248 -82 -91 329 -521 -537 -530 0 0 
1694 263 -516 237 -80 -99 306 -517 -538 -531 0 0 
1695 264 -527 235 -88 -92 331 -507 -539 -529 0 0 
1696 267 -536 227 -55 -63 297 -522 -533 -530 0 0 
1697 275 -540 213 -99 -93 321 -519 -539 -529 0 0 
1698 274 -541 205 -117 -113 301 -518 -539 -531 0 0 
1699 262 -526 211 -33 -51 272 -518 -535 -533 0 0 
1700 256 -522 209 -53 -73 280 -525 -534 -529 0 0 
1701 257 -520 202 -109 -117 315 -516 -541 -528 0 0 
1702 247 -507 213 -46 -86 304 -509 -533 -534 0 0 
1703 237 -484 242 -46 -82 308 -509 -536 -528 0 0 
1704 241 -486 253 -99 -95 310 -514 -539 -528 0 0 
1705 253 -504 250 -51 -78 306 -511 -533 -532 0 0 
1706 265 -530 238 -82 -94 316 -525 -537 -528 0 0 
1707 268 -524 235 -120 -91 308 -519 -540 -530 0 0 
1708 273 -546 223 -41 -83 317 -518 -533 -532 0 0 
1709 276 -538 208 -63 -91 317 -513 -537 -529 0 0 
1710 269 -526 204 -115 -87 299 -516 -539 -528 0 0 
1711 260 -521 213 -105 -71 278 -528 -537 -533 0 0 
1712 260 -525 211 -36 -58 292 -518 -535 -532 0 0 
1713 259 -515 206 -59 -121 320 -515 -536 -530 0 0 
1714 246 -493 220 -69 -101 337 -497 -538 -530 0 0 
1715 239 -479 241 -52 -73 335 -510 -534 -529 0 0 
1716 247 -493 250 -85 -95 336 -509 -540 -529 0 0 
1717 261 -518 243 -88 -88 307 -527 -537 -529 0 0 
1718 267 -522 234 -112 -86 283 -538 -538 -531 0 0 
1719 275 -540 228 -86 -111 311 -527 -539 -534 0 0 
1720 277 -544 222 -38 -92 277 -513 -535 -533 0 0 
1721 279 -541 207 -69 -76 308 -518 -535 -528 0 0 
1722 271 -525 208 -86 -90 304 -502 -541 -530 0 0 
1723 266 -517 216 -59 -84 306 -507 -534 -530 0 0 
1724 266 -521 211 -78 -80 324 -520 -536 -529 0 0 
1725 262 -513 205 -97 -109 340 -514 -539 -529 0 0 
1726 248 -490 223 -62 -101 308 -522 -535 -532 0 0 
1727 243 -486 243 -47 -47 272 -534 -537 -529 0 0 
1728 257 -496 250 -82 -87 280 -528 -537 -531 0 0 
1729 268 -524 240 -68 -96 275 -521 -537 -531 0 0 
1730 274 -535 234 -44 -67 254 -519 -534 -531 0 0 
1731 278 -541 229 -68 -86 283 -518 -536 -529 0 0 
1732 281 -553 218 -72 -98 295 -509 -535 -530 0 0 
1733 281 -545 207 -77 -101 314 -505 -534 -530 0 0 
1734 271 -527 212 -66 -71 313 -505 -534 -529 0 0 
1735 263 -525 217 -87 -73 317 -515 -534 -529 0 0 
1736 266 -523 206 -96 -101 344 -517 -535 -530 0 0 
1737 254 -505 205 -35 -84 325 -512 -532 -531 0 0 
1738 244 -485 231 -76 -77 317 -522 -535 -527 0 0 
1739 246 -491 248 -79 -79 326 -518 -533 -532 0 0 
1740 261 -503 250 -79 -97 321 -515 -533 -528 0 0 
1741 270 -520 241 -101 -86 322 -522 -534 -529 0 0 
1742 272 -538 237 -70 -81 318 -515 -532 -531 0 0 
1743 273 -541 230 -71 -98 327 -517 -533 -528 0 0 
1744 282 -549 217 -77 -98 336 -516 -532 -530 0 0 
1745 277 -541 207 -74 -93 328 -515 -533 -529 0 0 
1746 264 -527 213 -74 -107 347 -516 -532 -530 0 0 
1747 265 -525 214 -82 -89 334 -514 -534 -528 0 0 
1748 263 -521 204 -81 -91 337 -520 -533 -530 0 0 
1749 253 -510 211 -47 -91 343 -517 -530 -529 0 0 
1750 242 -490 231 -103 -100 328 -522 -534 -527 0 0 
1751 249 -491 251 -83 -92 338 -517 -531 -531 0 0 
1752 256 -508 249 -54 -98 345 -511 -532 -528 0 0 
1753 266 -524 242 -105 -107 371 -512 -533 -528 0 0 
1754 269 -531 237 -71 -96 362 -508 -531 -530 0 0 
1755 270 -538 231 -81 -98 370 -516 -533 -528 0 0 
1756 276 -547 215 -83 -110 378 -519 -532 -529 0 0 
1757 274 -534 207 -87 -96 360 -518 -533 -529 0 0 
1758 262 -522 216 -82 -106 362 -522 -532 -530 0 0 
1759 258 -522 215 -89 -113 373 -516 -533 -529 0 0 
1760 257 -518 204 -88 -102 356 -515 -533 -530 0 0 
1761 252 -497 213 -63 -92 362 -517 -531 -529 0 0 
1762 238 -479 237 -83 -93 351 -520 -534 -529 0 0 
1763 244 -486 253 -73 -116 379 -514 -531 -530 0 0 
1764 258 -512 251 -76 -100 366 -512 -533 -528 0 0 
1765 261 -520 241 -103 -97 358 -518 -533 -529 0 0 
1766 265 -527 237 -71 -99 368 -518 -532 -529 0 0 
1767 267 -538 230 -101 -117 365 -518 -535 -528 0 0 
1768 274 -547 213 -100 -117 371 -515 -533 -530 0 0 
1769 270 -531 210 -85 -115 376 -516 -533 -528 0 0 
1770 256 -522 220 -112 -125 384 -514 -536 -528 0 0 
1771 253 -516 206 -82 -104 386 -512 -535 -529 0 0 
1772 243 -492 212 -92 -97 383 -518 -535 -529 0 0 
1773 234 -486 242 -64 -97 374 -521 -533 -531 0 0 
1774 240 -492 252 -106 -111 365 -520 -537 -528 0 0 
1775 256 -509 247 -85 -87 336 -520 -535 -530 0 0 
1776 266 -525 239 -67 -75 323 -526 -535 -530 0 0 
1777 263 -532 239 -84 -94 333 -522 -537 -530 0 0 
1778 269 -539 225 -82 -114 340 -515 -535 -531 0 0 
1779 274 -541 212 -72 -89 329 -514 -535 -530 0 0 
1780 273 -524 209 -80 -103 346 -514 -535 -529 0 0 
1781 255 -522 220 -86 -116 382 -507 -535 -530 0 0 
1782 257 -519 214 -76 -107 377 -509 -536 -530 0 0 
1783 255 -506 203 -71 -98 380 -516 -536 -530 0 0 
1784 240 -485 217 -94 -87 330 -527 -538 -530 0 0 
1785 234 -476 241 -78 -77 316 -535 -537 -531 0 0 
1786 245 -498 252 -55 -92 316 -529 -536 -532 0 0 
1787 258 -515 246 -83 -110 318 -518 -538 -530 0 0 
1788 264 -529 240 -43 -78 321 -506 -534 -532 0 0 
1789 265 -538 239 -69 -72 324 -507 -536 -527 0 0 
1790 272 -544 226 -100 -119 384 -503 -538 -530 0 0 
1791 272 -543 211 -70 -84 346 -507 -537 -530 0 0 
1792 266 -528 211 -68 -74 338 -528 -536 -531 0 0 
1793 258 -522 216 -79 -91 346 -528 -539 -531 0 0 
1794 260 -523 207 -58 -103 314 -528 -535 -531 0 0 
1795 255 -510 206 -60 -89 308 -526 -537 -530 0 0 
1796 243 -489 222 -74 -83 294 -515 -537 -530 0 0 
1797 237 -481 245 -64 -72 298 -514 -535 -530 0 0 
1798 252 -497 255 -70 -63 288 -516 -536 -530 0 0 
1799 262 -517 246 -81 -88 308 -516 -536 -530 0 0 
1800 266 -527 241 -60 -89 326 -512 -535 -530 0 0 
1801 269 -531 235 -81 -86 321 -512 -536 -529 0 0 
1802 272 -538 221 -93 -98 332 -516 -536 -531 0 0 
1803 275 -544 207 -62 -79 313 -520 -535 -530 0 0 
1804 268 -528 212 -76 -85 310 -522 -535 -530 0 0 
1805 257 -520 218 -74 -95 321 -516 -535 -530 0 0 
1806 260 -520 209 -65 -85 320 -513 -537 -531 0 0 
1807 255 -508 204 -52 -86 325 -515 -534 -530 0 0 
1808 242 -498 226 -72 -79 318 -518 -536 -529 0 0 
1809 240 -487 251 -81 -98 323 -518 -534 -531 0 0 
1810 250 -506 253 -81 -87 325 -511 -536 -529 0 0 
1811 261 -523 244 -92 -77 305 -517 -536 -530 0 0 
1812 267 -524 238 -66 -73 312 -523 -534 -531 0 0 
1813 275 -536 234 -84 -103 318 -521 -535 -529 0 0 
1814 276 -540 220 -91 -103 311 -516 -536 -530 0 0 
1815 276 -539 208 -49 -76 302 -514 -534 -532 0 0 
1816 267 -532 213 -81 -98 325 -519 -535 -529 0 0 
1817 260 -520 219 -84 -105 331 -514 -536 -530 0 0 
1818 263 -529 208 -69 -83 321 -512 -534 -531 0 0 
1819 261 -512 208 -75 -94 339 -516 -535 -530 0 0 
1820 247 -487 225 -74 -90 325 -517 -536 -530 0 0 
1821 239 -484 250 -58 -82 318 -522 -533 -531 0 0 
1822 252 -494 252 -85 -96 312 -519 -535 -529 0 0 
1823 267 -517 245 -91 -97 316 -517 -537 -529 0 0 
1824 268 -521 240 -57 -76 305 -515 -533 -531 0 0 
1825 269 -531 236 -55 -73 308 -517 -535 -530 0 0 
1826 274 -540 218 -93 -100 324 -517 -537 -530 0 0 
1827 282 -540 207 -52 -85 308 -518 -533 -531 0 0 
1828 266 -531 210 -49 -80 313 -518 -535 -529 0 0 
1829 260 -521 218 -79 -97 326 -516 -535 -530 0 0 
1830 260 -522 209 -67 -89 320 -512 -535 -530 0 0 
1831 253 -504 206 -57 -88 333 -512 -534 -530 0 0 
1832 238 -483 229 -88 -87 319 -518 -536 -529 0 0 
1833 239 -484 250 -65 -84 325 -521 -534 -531 0 0 
1834 249 -498 253 -56 -94 326 -517 -534 -530 0 0 
1835 270 -514 245 -92 -95 325 -514 -535 -529 0 0 
1836 269 -527 239 -64 -71 315 -517 -534 -530 0 0 
1837 270 -531 236 -64 -84 319 -518 -533 -530 0 0 
1838 275 -541 224 -91 -109 342 -514 -536 -529 0 0 
1839 273 -530 209 -65 -87 322 -512 -534 -530 0 0 
1840 265 -524 213 -59 -88 339 -517 -534 -530 0 0 
1841 259 -516 220 -85 -98 345 -516 -536 -529 0 0 
1842 259 -524 208 -67 -87 340 -516 -534 -531 0 0 
1843 253 -511 208 -52 -83 334 -518 -533 -530 0 0 
1844 239 -484 228 -80 -92 336 -520 -536 -529 0 0 
1845 238 -479 248 -56 -78 317 -518 -533 -532 0 0 
1846 251 -502 256 -65 -75 315 -518 -535 -529 0 0 
1847 261 -517 244 -98 -93 320 -517 -535 -529 0 0 
1848 268 -524 242 -60 -79 328 -513 -533 -530 0 0 
1849 268 -530 235 -88 -85 323 -515 -535 -530 0 0 
1850 275 -540 222 -94 -107 345 -517 -534 -530 0 0 
1851 279 -534 208 -64 -84 319 -518 -534 -530 0 0 
1852 267 -522 216 -69 -102 346 -520 -533 -531 0 0 
1853 255 -514 220 -70 -107 354 -511 -535 -529 0 0 
1854 260 -520 209 -83 -78 331 -513 -534 -529 0 0 
1855 255 -512 205 -68 -67 328 -520 -535 -530 0 0 
1856 239 -495 227 -72 -85 324 -524 -535 -530 0 0 
1857 239 -485 249 -70 -88 327 -517 -533 -531 0 0 
1858 248 -498 254 -81 -89 334 -513 -534 -529 0 0 
1859 263 -513 248 -94 -99 345 -512 -535 -530 0 0 
1860 266 -520 242 -69 -94 355 -512 -533 -530 0 0 
1861 267 -531 236 -92 -101 353 -516 -534 -530 0 0 
1862 275 -543 222 -101 -102 362 -517 -535 -530 0 0 
1863 272 -543 208 -77 -82 333 -520 -534 -531 0 0 
1864 263 -530 215 -62 -93 335 -523 -534 -530 0 0 
1865 256 -525 219 -74 -87 319 -519 -535 -530 0 0 
1866 257 -520 211 -99 -79 302 -521 -537 -530 0 0 
1867 252 -510 209 -50 -91 337 -516 -532 -532 0 0 
1868 238 -489 228 -80 -98 345 -507 -534 -528 0 0 
1869 236 -480 250 -92 -97 359 -506 -534 -530 0 0 
1870 247 -493 257 -84 -65 337 -511 -534 -529 0 0 
1871 264 -518 246 -96 -95 354 -524 -535 -530 0 0 
1872 264 -523 241 -74 -92 359 -521 -534 -531 0 0 
1873 266 -530 237 -92 -101 347 -519 -534 -530 0 0 
1874 275 -539 223 -110 -98 337 -517 -536 -529 0 0 
1875 275 -532 212 -85 -81 316 -522 -535 -531 0 0 
1876 263 -527 212 -65 -68 318 -519 -533 -531 0 0 
1877 261 -512 221 -88 -107 360 -514 -534 -529 0 0 
1878 261 -520 209 -93 -100 347 -509 -536 -530 0 0 
1879 254 -503 208 -74 -81 354 -511 -533 -529 0 0 
1880 237 -482 223 -98 -93 345 -520 -535 -529 0 0 
1881 234 -487 249 -101 -87 349 -523 -535 -531 0 0 
1882 245 -502 256 -66 -71 324 -520 -534 -531 0 0 
1883 258 -522 249 -99 -94 339 -523 -536 -529 0 0 
1884 262 -523 240 -77 -85 325 -513 -534 -531 0 0 
1885 263 -530 237 -71 -79 324 -517 -535 -530 0 0 
1886 271 -542 224 -95 -97 337 -516 -535 -530 0 0 
1887 274 -537 210 -80 -87 339 -516 -534 -530 0 0 
1888 263 -528 213 -80 -86 335 -518 -534 -530 0 0 
1889 260 -514 220 -134 -92 340 -515 -536 -529 0 0 
1890 256 -518 209 -130 -91 310 -518 -537 -530 0 0 
1891 251 -506 206 -82 -60 302 -527 -535 -532 0 0 
1892 240 -487 223 -38 -63 303 -525 -532 -531 0 0 
1893 237 -470 248 -67 -122 361 -508 -535 -530 0 0 
1894 246 -489 256 -68 -87 344 -501 -535 -530 0 0 
1895 259 -513 247 -82 -61 324 -512 -535 -527 0 0 
1896 265 -518 240 -134 -79 333 -523 -535 -529 0 0 
1897 266 -522 236 -127 -87 318 -527 -535 -531 0 0 
1898 270 -546 225 -115 -99 327 -525 -534 -532 0 0 
1899 272 -542 211 -64 -104 332 -514 -534 -532 0 0 
1900 270 -533 210 -78 -84 325 -512 -536 -529 0 0 
1901 262 -524 218 -81 -72 322 -516 -534 -530 0 0 
1902 265 -518 213 -105 -97 338 -519 -536 -530 0 0 
1903 255 -509 203 -85 -90 338 -514 -535 -531 0 0 
1904 241 -484 220 -63 -70 321 -516 -534 -530 0 0 
1905 236 -479 242 -100 -89 325 -522 -535 -530 0 0 
1906 244 -497 255 -94 -73 313 -517 -535 -530 0 0 
1907 256 -511 247 -88 -86 301 -522 -535 -531 0 0 
1908 265 -524 240 -88 -85 324 -513 -534 -530 0 0 
1909 265 -533 237 -99 -92 323 -515 -535 -529 0 0 
1910 271 -547 226 -100 -82 330 -512 -535 -531 0 0 
1911 274 -539 210 -67 -86 322 -519 -534 -530 0 0 
1912 270 -530 208 -100 -89 314 -521 -536 -530 0 0 
1913 256 -518 217 -82 -93 324 -521 -533 -531 0 0 
1914 263 -522 212 -93 -92 325 -513 -537 -530 0 0 
1915 254 -514 206 -82 -87 344 -512 -534 -530 0 0 
1916 248 -489 218 -83 -84 334 -510 -535 -530 0 0 
1917 236 -479 243 -91 -91 343 -518 -535 -530 0 0 
1918 244 -489 252 -74 -80 327 -515 -535 -531 0 0 
1919 258 -508 249 -99 -90 331 -524 -535 -530 0 0 
1920 265 -524 239 -90 -75 318 -520 -534 -531 0 0 
1921 268 -530 238 -103 -95 321 -523 -534 -530 0 0 
1922 270 -541 229 -103 -101 316 -514 -535 -531 0 0 
1923 276 -540 214 -79 -84 316 -513 -535 -530 0 0 
1924 269 -532 209 -85 -77 315 -515 -534 -530 0 0 
1925 261 -518 220 -79 -91 346 -515 -533 -530 0 0 
1926 257 -516 214 -95 -91 332 -512 -536 -530 0 0 
1927 263 -513 205 -88 -93 339 -517 -534 -530 0 0 
1928 251 -497 216 -81 -72 306 -522 -535 -530 0 0 
1929 237 -478 241 -101 -89 324 -526 -535 -530 0 0 
1930 243 -486 252 -87 -89 326 -513 -533 -531 0 0 
1931 258 -506 250 -100 -86 328 -514 -535 -529 0 0 
1932 264 -520 241 -90 -75 327 -513 -534 -530 0 0 
1933 264 -530 239 -86 -84 336 -517 -535 -529 0 0 
1934 270 -535 228 -97 -97 339 -517 -534 -530 0 0 
1935 275 -545 214 -85 -75 326 -518 -534 -530 0 0 
1936 272 -538 209 -90 -80 312 -523 -535 -530 0 0 
1937 264 -524 218 -79 -96 339 -517 -534 -530 0 0 
1938 258 -530 217 -95 -101 341 -511 -535 -530 0 0 
1939 265 -517 208 -90 -98 351 -512 -534 -530 0 0 
1940 247 -499 214 -89 -69 313 -514 -535 -529 0 0 
1941 236 -477 240 -97 -86 345 -527 -535 -531 0 0 
1942 240 -485 256 -83 -99 345 -515 -535 -531 0 0 
1943 263 -511 250 -89 -94 329 -517 -535 -530 0 0 
1944 264 -520 244 -83 -80 327 -518 -534 -530 0 0 
1945 271 -526 240 -104 -96 337 -516 -535 -530 0 0 
1946 270 -541 231 -114 -107 342 -518 -535 -530 0 0 
1947 275 -542 216 -83 -86 331 -516 -535 -530 0 0 
1948 272 -538 208 -94 -93 335 -521 -536 -529 0 0 
1949 260 -521 215 -87 -92 336 -517 -534 -531 0 0 
1950 261 -519 213 -102 -76 327 -516 -536 -529 0 0 
1951 257 -517 205 -86 -88 318 -521 -533 -531 0 0 
1952 247 -507 212 -77 -84 330 -521 -536 -529 0 0 
1953 236 -479 235 -85 -95 332 -520 -534 -530 0 0 
1954 241 -488 255 -91 -75 331 -510 -536 -529 0 0 
1955 253 -504 249 -89 -90 325 -516 -533 -530 0 0 
1956 265 -517 240 -100 -77 328 -514 -536 -529 0 0 
1957 263 -531 238 -98 -88 327 -521 -534 -530 0 0 
1958 270 -538 230 -100 -104 341 -522 -535 -530 0 0 
1959 277 -541 215 -87 -96 329 -517 -534 -530 0 0 
1960 272 -533 207 -92 -98 327 -515 -535 -530 0 0 
1961 262 -521 214 -81 -98 333 -517 -533 -530 0 0 
1962 258 -523 215 -97 -90 334 -513 -536 -530 0 0 
1963 264 -520 203 -76 -95 342 -518 -533 -530 0 0 
1964 248 -498 211 -90 -86 326 -518 -535 -530 0 0 
1965 238 -481 234 -101 -90 316 -523 -535 -530 0 0 
1966 239 -487 251 -70 -82 307 -519 -533 -530 0 0 
1967 253 -505 252 -106 -95 313 -521 -535 -528 0 0 
1968 262 -523 241 -108 -91 321 -512 -535 -531 0 0 
1969 268 -533 240 -90 -94 344 -513 -533 -529 0 0 
1970 269 -537 233 -115 -108 343 -512 -536 -529 0 0 
1971 275 -542 218 -96 -99 350 -516 -534 -530 0 0 
1972 277 -540 208 -98 -96 331 -525 -535 -531 0 0 
1973 267 -526 216 -93 -109 343 -520 -534 -531 0 0 
1974 264 -523 219 -86 -99 333 -514 -536 -529 0 0 
1975 256 -520 205 -85 -88 324 -516 -533 -530 0 0 
1976 250 -500 206 -97 -87 325 -519 -535 -529 0 0 
1977 239 -481 233 -106 -103 320 -520 -535 -530 0 0 
1978 237 -481 252 -82 -91 329 -512 -533 -531 0 0 
1979 258 -501 253 -104 -102 335 -516 -534 -529 0 0 
1980 264 -521 243 -118 -109 345 -513 -537 -530 0 0 
1981 264 -526 239 -81 -81 321 -516 -532 -531 0 0 
1982 269 -531 233 -115 -111 341 -523 -536 -529 0 0 
1983 275 -538 218 -104 -112 333 -516 -535 -532 0 0 
1984 274 -533 207 -76 -87 316 -518 -534 -530 0 0 
1985 264 -523 212 -99 -102 327 -520 -535 -530 0 0 
1986 259 -527 219 -105 -108 344 -510 -537 -530 0 0 
1987 258 -520 207 -83 -99 338 -510 -533 -531 0 0 
1988 250 -504 209 -100 -73 322 -514 -535 -528 0 0 
1989 241 -482 230 -108 -95 322 -527 -536 -530 0 0 
1990 238 -482 249 -80 -88 334 -519 -534 -531 0 0 
1991 258 -498 253 -78 -91 311 -521 -536 -529 0 0 
1992 259 -515 244 -104 -98 331 -513 -536 -530 0 0 
1993 270 -528 241 -60 -88 322 -512 -532 -530 0 0 
1994 272 -536 233 -97 -80 325 -516 -537 -527 0 0 
1995 281 -543 221 -99 -102 338 -515 -536 -531 0 0 
1996 280 -536 208 -65 -95 321 -521 -534 -530 0 0 
1997 263 -524 216 -80 -81 312 -523 -537 -529 0 0 
1998 256 -517 216 -99 -102 326 -518 -535 -531 0 0 
1999 267 -518 208 -80 -111 333 -510 -534 -530 0 0 
2000 251 -503 209 -84 -87 331 -509 -534 -529 0 0 
2001 240 -488 228 -102 -74 316 -520 -537 -529 0 0 
2002 242 -484 250 -79 -81 315 -520 -534 -531 0 0 
2003 250 -502 254 -86 -100 322 -520 -536 -529 0 0 
2004 268 -519 244 -94 -85 309 -516 -536 -530 0 0 
2005 268 -532 239 -66 -83 311 -514 -533 -531 0 0 
2006 267 -535 236 -101 -98 324 -517 -537 -528 0 0 
2007 274 -544 219 -128 -102 329 -511 -536 -531 0 0 
2008 276 -541 208 -73 -82 318 -517 -535 -531 0 0 
2009 266 -525 211 -86 -88 311 -522 -536 -530 0 0 
2010 256 -518 220 -99 -100 318 -519 -535 -530 0 0 
2011 261 -525 209 -91 -89 308 -514 -536 -530 0 0 
2012 253 -507 206 -88 -82 312 -512 -534 -530 0 0 
2013 240 -480 226 -94 -93 324 -515 -536 -530 0 0 
2014 245 -478 248 -94 -76 308 -515 -535 -530 0 0 
2015 250 -499 254 -93 -77 310 -519 -535 -529 0 0 
2016 261 -513 245 -93 -104 325 -517 -535 -530 0 0 
2017 266 -522 240 -98 -86 310 -512 -534 -529 0 0 
2018 268 -533 237 -114 -96 322 -519 -536 -529 0 0 
2019 279 -544 223 -109 -110 336 -515 -535 -530 0 0 
2020 273 -539 210 -84 -79 315 -515 -534 -529 0 0 
2021 270 -524 214 -94 -86 315 -523 -534 -530 0 0 
2022 259 -513 220 -99 -105 345 -515 -535 -530 0 0 
2023 260 -514 213 -93 -111 345 -510 -535 -530 0 0 
2024 257 -506 207 -83 -68 327 -516 -534 -530 0 0 
2025 242 -483 227 -99 -85 320 -523 -535 -530 0 0 
2026 239 -480 247 -115 -102 341 -518 -534 -531 0 0 
2027 248 -497 256 -92 -78 310 -514 -535 -530 0 0 
2028 262 -512 248 -96 -87 326 -520 -535 -529 0 0 
2029 263 -522 241 -81 -94 340 -513 -533 -530 0 0 
2030 266 -529 238 -133 -89 325 -518 -536 -529 0 0 
2031 271 -545 226 -96 -91 317 -520 -534 -531 0 0 
2032 274 -538 212 -63 -88 323 -519 -533 -529 0 0 
2033 265 -521 213 -100 -98 330 -517 -535 -530 0 0 
2034 257 -518 219 -88 -91 337 -512 -534 -531 0 0 
2035 258 -518 212 -102 -94 335 -516 -535 -529 0 0 
2036 254 -508 204 -83 -73 331 -516 -535 -529 0 0 
2037 240 -483 224 -92 -73 317 -522 -534 -530 0 0 
2038 240 -483 249 -96 -102 343 -521 -534 -530 0 0 
2039 244 -496 255 -109 -85 318 -514 -535 -529 0 0 
2040 266 -512 246 -94 -77 317 -518 -534 -531 0 0 
2041 268 -522 239 -80 -90 329 -519 -534 -530 0 0 
2042 264 -531 236 -106 -97 328 -517 -535 -528 0 0 
2043 270 -545 225 -89 -101 326 -516 -534 -530 0 0 
2044 273 -541 212 -70 -86 323 -517 -534 -529 0 0 
2045 265 -525 211 -93 -102 330 -517 -534 -529 0 0 
2046 255 -513 221 -118 -93 334 -513 -537 -529 0 0 
2047 257 -514 212 -83 -79 317 -514 -534 -530 0 0 
2048 252 -509 204 -66 -95 348 -518 -533 -529 0 0 
2049 240 -487 223 -121 -97 329 -519 -537 -529 0 0 
2050 238 -475 248 -89 -85 327 -517 -534 -531 0 0 
2051 249 -492 255 -64 -94 326 -520 -533 -529 0 0 
2052 260 -518 247 -131 -104 325 -517 -538 -528 0 0 
2053 264 -526 241 -86 -84 318 -517 -532 -531 0 0 
2054 267 -526 236 -77 -95 333 -518 -535 -528 0 0 
2055 270 -544 224 -118 -115 342 -513 -538 -529 0 0 
2056 272 -540 210 -66 -74 318 -516 -533 -532 0 0 
2057 264 -533 211 -84 -86 321 -527 -536 -528 0 0 
2058 255 -520 219 -119 -118 348 -516 -535 -531 0 0 
2059 259 -524 212 -85 -95 337 -511 -535 -531 0 0 
2060 252 -514 206 -81 -88 340 -515 -534 -530 0 0 
2061 242 -490 221 -100 -99 351 -519 -536 -530 0 0 
2062 235 -476 246 -90 -87 325 -522 -536 -532 0 0 
2063 248 -490 253 -80 -82 334 -519 -534 -530 0 0 
2064 257 -510 245 -102 -108 325 -523 -537 -529 0 0 
2065 265 -523 240 -85 -72 300 -519 -535 -531 0 0 
2066 268 -533 236 -86 -90 316 -523 -533 -531 0 0 
2067 273 -536 224 -114 -124 342 -515 -537 -530 0 0 
2068 274 -542 210 -88 -65 296 -513 -535 -530 0 0 
2069 269 -532 208 -79 -73 306 -524 -534 -531 0 0 
2070 256 -517 217 -88 -108 333 -519 -535 -530 0 0 
2071 257 -521 211 -98 -83 309 -516 -535 -529 0 0 
2072 255 -510 203 -71 -82 321 -517 -534 -530 0 0 
2073 240 -496 218 -84 -94 326 -515 -535 -529 0 0 
2074 234 -484 243 -101 -94 319 -521 -535 -530 0 0 
2075 245 -493 256 -73 -78 304 -521 -534 -530 0 0 
2076 260 -513 246 -101 -117 329 -517 -535 -529 0 0 
2077 264 -518 236 -114 -111 332 -509 -534 -530 0 0 
2078 267 -527 235 -98 -87 325 -517 -535 -528 0 0 
2079 267 -527 235 -98 -87 325 -517 -535 -528 0 0 
2080 269 -536 224 -118 -110 329 -516 -535 -530 0 0 
2081 277 -540 211 -92 -118 343 -517 -534 -529 0 0 
2082 266 -529 210 -104 -96 318 -517 -537 -530 0 0 
2083 257 -517 216 -94 -116 340 -520 -535 -531 0 0 
2084 257 -521 211 -85 -98 329 -513 -536 -529 0 0 
2085 256 -514 206 -88 -91 325 -519 -535 -530 0 0 
2086 245 -486 221 -87 -108 321 -519 -536 -530 0 0 
2087 234 -481 245 -90 -108 333 -514 -535 -529 0 0 
2088 248 -490 254 -105 -97 321 -516 -536 -530 0 0 
2089 257 -509 245 -104 -104 328 -519 -537 -531 0 0 
2090 264 -519 239 -90 -98 325 -517 -536 -530 0 0 
2091 265 -523 237 -89 -106 325 -519 -536 -530 0 0 
2092 271 -541 224 -105 -96 313 -515 -537 -530 0 0 
2093 276 -539 210 -98 -82 299 -521 -536 -530 0 0 
2094 271 -536 208 -86 -95 304 -522 -536 -530 0 0 
2095 258 -518 216 -97 -98 300 -519 -536 -530 0 0 
2096 258 -521 211 -93 -93 298 -513 -537 -531 0 0 
2097 257 -518 204 -72 -88 303 -514 -536 -530 0 0 
2098 246 -497 219 -80 -81 294 -519 -536 -530 0 0 
2099 237 -477 244 -93 -91 298 -520 -537 -529 0 0 
2100 248 -492 256 -98 -95 300 -513 -536 -530 0 0 
2101 259 -509 248 -88 -88 306 -512 -536 -530 0 0 
2102 265 -517 237 -90 -92 311 -515 -536 -530 0 0 
2103 272 -523 238 -85 -102 317 -517 -536 -530 0 0 
2104 277 -541 223 -101 -97 307 -515 -537 -530 0 0 
2105 278 -539 210 -96 -84 281 -519 -538 -529 0 0 
2106 273 -531 208 -76 -77 270 -527 -535 -531 0 0 
2107 263 -523 219 -60 -93 284 -525 -535 -531 0 0 
2108 263 -519 213 -111 -120 295 -510 -538 -529 0 0 
2109 264 -513 206 -67 -97 302 -506 -533 -532 0 0 
2110 245 -489 224 -57 -70 303 -504 -535 -526 0 0 
2111 240 -478 246 -122 -111 339 -514 -538 -528 0 0 
2112 249 -491 254 -85 -82 317 -510 -536 -532 0 0 
2113 264 -511 247 -65 -91 315 -523 -535 -529 0 0 
2114 267 -524 238 -90 -88 294 -520 -537 -530 0 0 
2115 268 -529 239 -84 -94 296 -525 -533 -531 0 0 
2116 277 -546 226 -96 -107 311 -516 -535 -530 0 0 
2117 278 -541 211 -98 -89 291 -511 -535 -530 0 0 
2118 271 -532 212 -82 -86 298 -517 -534 -530 0 0 
2119 262 -517 223 -66 -93 315 -513 -534 -530 0 0 
2120 259 -512 215 -101 -110 333 -510 -535 -529 0 0 
2121 258 -508 207 -81 -82 325 -513 -534 -529 0 0 
2122 245 -484 220 -78 -68 305 -520 -535 -530 0 0 
2123 239 -473 248 -94 -88 318 -522 -534 -530 0 0 
2124 245 -481 257 -93 -89 318 -513 -534 -529 0 0 
2125 261 -505 251 -95 -86 317 -516 -535 -530 0 0 
2126 265 -518 243 -85 -85 333 -511 -533 -529 0 0 
2127 268 -526 237 -102 -95 329 -519 -533 -528 0 0 
2128 280 -540 226 -124 -94 331 -519 -535 -530 0 0 
2129 278 -538 215 -90 -88 323 -515 -533 -531 0 0 
2130 269 -520 211 -90 -90 328 -519 -535 -529 0 0 
2131 260 -519 220 -80 -79 326 -513 -532 -530 0 0 
2132 259 -519 213 -91 -84 333 -513 -534 -529 0 0 
2133 254 -510 207 -88 -90 342 -518 -533 -530 0 0 
2134 243 -489 223 -80 -83 338 -515 -533 -529 0 0 
2135 236 -480 245 -88 -97 351 -515 -532 -529 0 0 
2136 245 -488 256 -98 -81 335 -513 -533 -528 0 0 
2137 259 -509 248 -95 -96 343 -522 -533 -530 0 0 
2138 263 -518 240 -97 -91 352 -515 -534 -529 0 0 
2139 267 -527 238 -104 -101 347 -518 -532 -530 0 0 
2140 272 -545 224 -119 -88 332 -520 -535 -530 0 0 
2141 273 -538 210 -96 -88 328 -519 -533 -530 0 0 
2142 266 -523 211 -81 -97 340 -517 -532 -529 0 0 
2143 255 -520 220 -100 -99 359 -513 -533 -529 0 0 
2144 258 -523 213 -97 -95 361 -509 -533 -529 0 0 
2145 257 -510 207 -96 -99 367 -516 -534 -529 0 0 
2146 244 -487 220 -80 -93 358 -520 -533 -530 0 0 
2147 233 -478 243 -95 -91 351 -523 -534 -529 0 0 
2148 241 -490 252 -114 -89 330 -523 -534 -530 0 0 
2149 258 -509 244 -93 -93 328 -525 -534 -530 0 0 
2150 269 -516 238 -90 -102 328 -516 -533 -530 0 0 
2151 265 -526 236 -99 -119 347 -514 -535 -529 0 0 
2152 270 -540 224 -104 -88 336 -510 -534 -530 0 0 
2153 273 -543 210 -90 -94 346 -516 -534 -530 0 0 
2154 265 -527 209 -100 -117 360 -520 -535 -529 0 0 
2155 255 -516 217 -94 -94 353 -515 -534 -530 0 0 
2156 254 -520 209 -95 -103 348 -515 -536 -529 0 0 
2157 260 -517 202 -89 -100 354 -519 -534 -529 0 0 
2158 239 -493 220 -89 -92 342 -518 -535 -529 0 0 
2159 235 -477 246 -105 -113 369 -515 -534 -530 0 0 
2160 242 -489 255 -106 -104 358 -511 -535 -529 0 0 
2161 260 -515 245 -116 -101 357 -518 -536 -531 0 0 
2162 265 -528 239 -80 -102 356 -521 -533 -531 0 0 
2163 264 -533 237 -114 -121 354 -524 -536 -529 0 0 
2164 267 -542 223 -122 -112 343 -520 -535 -531 0 0 
2165 274 -539 209 -91 -97 327 -520 -535 -530 0 0 
2166 264 -526 208 -108 -100 327 -521 -536 -530 0 0 
2167 254 -518 216 -94 -88 324 -515 -536 -530 0 0 
2168 255 -521 210 -96 -106 334 -516 -535 -531 0 0 
2169 254 -515 205 -79 -81 332 -516 -536 -530 0 0 
2170 238 -488 220 -78 -81 314 -520 -534 -531 0 0 
2171 232 -479 246 -94 -96 335 -518 -535 -529 0 0 
2172 243 -494 255 -103 -90 325 -514 -536 -530 0 0 
2173 257 -512 247 -90 -100 335 -519 -535 -530 0 0 
2174 261 -525 240 -80 -87 341 -513 -535 -530 0 0 
2175 261 -530 236 -118 -104 341 -520 -537 -529 0 0 
2176 267 -548 222 -98 -98 325 -521 -535 -532 0 0 
2177 272 -544 208 -83 -94 327 -518 -535 -529 0 0 
2178 263 -529 209 -103 -111 334 -521 -536 -531 0 0 
2179 257 -521 218 -85 -89 328 -511 -535 -531 0 0 
2180 254 -521 211 -80 -102 337 -515 -536 -530 0 0 
2181 253 -515 204 -102 -89 326 -513 -538 -530 0 0 
2182 243 -491 221 -67 -70 321 -522 -534 -531 0 0 
2183 233 -483 244 -68 -84 319 -525 -536 -530 0 0 
2184 247 -495 252 -99 -91 295 -521 -538 -530 0 0 
2185 256 -516 241 -75 -75 278 -525 -536 -531 0 0 
2186 265 -523 238 -58 -71 283 -523 -534 -530 0 0 
2187 265 -533 236 -112 -113 309 -518 -537 -529 0 0 
2188 269 -534 224 -94 -101 312 -509 -536 -531 0 0 
2189 275 -537 208 -70 -85 313 -507 -535 -529 0 0 
2190 268 -527 210 -93 -98 328 -514 -537 -529 0 0 
2191 256 -519 215 -90 -104 343 -513 -536 -531 0 0 
2192 261 -519 208 -85 -98 340 -518 -536 -530 0 0 
2193 252 -515 201 -83 -87 318 -524 -537 -531 0 0 
2194 245 -493 221 -85 -85 298 -527 -536 -530 0 0 
2195 237 -483 244 -72 -94 296 -519 -535 -531 0 0 
2196 246 -503 253 -85 -96 297 -514 -536 -530 0 0 
2197 261 -519 245 -71 -76 297 -513 -536 -530 0 0 
2198 272 -522 239 -68 -85 315 -512 -535 -530 0 0 
2199 268 -528 236 -81 -106 329 -514 -535 -530 0 0 
2200 276 -546 221 -101 -82 317 -513 -537 -530 0 0 
2201 274 -538 209 -70 -81 307 -518 -535 -532 0 0 
2202 270 -520 211 -64 -88 326 -519 -535 -530 0 0 
2203 257 -523 218 -88 -100 322 -519 -536 -530 0 0 
2204 262 -526 208 -75 -78 307 -513 -536 -530 0 0 
2205 255 -518 206 -67 -76 301 -519 -535 -531 0 0 
2206 243 -491 222 -72 -87 315 -519 -536 -530 0 0 
2207 246 -483 246 -84 -87 304 -517 -535 -530 0 0 
2208 251 -506 251 -91 -86 309 -514 -536 -529 0 0 
2209 269 -521 246 -80 -95 310 -517 -536 -530 0 0 
2210 267 -530 241 -64 -80 313 -513 -534 -531 0 0 
2211 276 -537 236 -80 -97 324 -518 -536 -530 0 0 
2212 275 -548 220 -99 -100 326 -515 -536 -531 0 0 
2213 279 -539 210 -70 -77 304 -516 -534 -530 0 0 
2214 268 -526 208 -98 -80 301 -524 -536 -529 0 0 
2215 259 -519 218 -98 -81 295 -518 -535 -531 0 0 
2216 262 -524 208 -90 -96 307 -514 -535 -530 0 0 
2217 261 -513 206 -81 -75 302 -512 -535 -530 0 0 
2218 252 -484 225 -77 -81 307 -515 -536 -530 0 0 
2219 242 -478 247 -68 -99 337 -514 -533 -530 0 0 
2220 251 -493 253 -93 -85 329 -511 -536 -528 0 0 
2221 264 -513 246 -94 -87 317 -519 -535 -530 0 0 
2222 273 -522 240 -66 -89 329 -519 -532 -530 0 0 
2223 276 -526 234 -109 -117 338 -521 -536 -529 0 0 
2224 276 -540 221 -109 -101 333 -513 -535 -531 0 0 
2225 277 -543 208 -71 -67 303 -518 -533 -530 0 0 
2226 268 -522 212 -95 -98 326 -522 -535 -529 0 0 
2227 258 -517 216 -87 -107 331 -516 -533 -531 0 0 
2228 261 -524 210 -89 -97 333 -510 -535 -529 0 0 
2229 254 -510 204 -81 -78 325 -512 -534 -530 0 0 
2230 243 -487 224 -82 -71 320 -519 -534 -529 0 0 
2231 238 -478 247 -77 -89 325 -523 -533 -530 0 0 
2232 247 -496 254 -74 -99 327 -513 -535 -529 0 0 
2233 264 -511 247 -66 -84 330 -513 -533 -529 0 0 
2234 269 -522 241 -58 -84 335 -513 -533 -530 0 0 
2235 269 -534 237 -117 -96 325 -517 -535 -529 0 0 
2236 279 -537 223 -105 -88 309 -526 -534 -531 0 0 
2237 276 -538 207 -85 -86 308 -520 -534 -530 0 0 
2238 266 -522 213 -81 -108 336 -516 -532 -530 0 0 
2239 260 -518 219 -93 -90 325 -507 -535 -528 0 0 
2240 259 -521 212 -92 -89 327 -512 -534 -530 0 0 
2241 254 -510 206 -64 -97 352 -513 -533 -529 0 0 
2242 239 -486 227 -104 -99 342 -518 -535 -529 0 0 
2243 234 -479 249 -93 -100 346 -517 -534 -530 0 0 
2244 245 -491 257 -73 -99 347 -514 -534 -529 0 0 
2245 260 -510 246 -89 -102 348 -516 -534 -529 0 0 
2246 265 -520 244 -77 -92 348 -515 -533 -530 0 0 
2247 266 -536 236 -94 -104 348 -518 -534 -528 0 0 
2248 269 -538 225 -88 -96 344 -516 -533 -530 0 0 
2249 271 -538 212 -82 -88 341 -515 -533 -530 0 0 
2250 267 -521 212 -92 -114 355 -519 -534 -530 0 0 
2251 254 -513 218 -95 -92 345 -513 -534 -529 0 0 
2252 258 -519 212 -101 -96 344 -517 -534 -529 0 0 
2253 252 -513 208 -89 -96 350 -519 -533 -530 0 0 
2254 237 -482 225 -88 -98 337 -521 -533 -529 0 0 
2255 233 -482 249 -98 -90 331 -518 -535 -529 0 0 
2256 247 -492 256 -89 -89 325 -517 -533 -530 0 0 
2257 257 -510 247 -81 -99 349 -512 -534 -530 0 0 
2258 261 -519 241 -87 -94 360 -510 -532 -529 0 0 
2259 261 -529 235 -105 -98 360 -517 -536 -529 0 0 
2260 266 -541 223 -98 -88 354 -520 -532 -530 0 0 
2261 269 -540 210 -77 -94 342 -523 -534 -529 0 0 
2262 263 -525 213 -96 -94 335 -521 -534 -530 0 0 
2263 252 -519 219 -93 -99 343 -515 -533 -530 0 0 
2264 255 -526 210 -90 -84 339 -510 -534 -530 0 0 
2265 251 -510 204 -80 -74 345 -516 -533 -530 0 0 
2266 236 -486 222 -88 -83 345 -520 -535 -529 0 0 
2267 233 -476 245 -82 -99 361 -517 -533 -531 0 0 
2268 243 -491 252 -86 -93 343 -514 -535 -529 0 0 
2269 255 -515 246 -95 -85 339 -518 -536 -530 0 0 
2270 260 -527 238 -76 -99 331 -520 -533 -531 0 0 
2271 260 -530 237 -99 -104 336 -522 -536 -529 0 0 
2272 270 -536 224 -90 -94 328 -513 -535 -530 0 0 
2273 268 -535 211 -72 -95 333 -513 -535 -529 0 0 
2274 264 -520 213 -83 -94 343 -515 -535 -530 0 0 
2275 255 -517 219 -95 -97 356 -514 -535 -529 0 0 
2276 257 -517 209 -101 -110 364 -514 -536 -529 0 0 
2277 253 -505 206 -79 -91 348 -516 -536 -530 0 0 
2278 241 -490 223 -82 -91 353 -520 -536 -531 0 0 
2279 236 -481 246 -82 -108 356 -519 -535 -530 0 0 
2280 244 -495 253 -105 -92 333 -512 -537 -529 0 0 
2281 258 -517 248 -88 -82 326 -524 -536 -530 0 0 
2282 263 -522 240 -68 -75 321 -524 -534 -531 0 0 
2283 266 -532 237 -100 -111 333 -522 -536 -530 0 0 
2284 273 -540 224 -90 -102 331 -513 -536 -530 0 0 
2285 274 -537 211 -71 -69 312 -511 -535 -530 0 0 
2286 267 -528 211 -81 -95 345 -521 -535 -530 0 0 
2287 260 -518 222 -80 -95 343 -513 -535 -530 0 0 
2288 258 -522 211 -78 -94 343 -514 -536 -530 0 0 
2289 254 -515 205 -52 -82 339 -516 -535 -531 0 0 
2290 240 -484 224 -51 -89 335 -521 -534 -530 0 0 
2291 235 -479 247 -110 -98 334 -516 -537 -529 0 0 
2292 246 -494 255 -124 -79 299 -521 -536 -531 0 0 
2293 260 -509 248 -99 -82 295 -529 -536 -530 0 0 
2294 266 -520 243 -75 -106 319 -515 -534 -531 0 0 
2295 273 -527 242 -58 -123 339 -506 -536 -529 0 0 
2296 273 -535 230 -64 -94 356 -501 -536 -530 0 0 
2297 275 -534 213 -64 -91 358 -505 -536 -529 0 0 
2298 268 -522 211 -78 -89 355 -519 -536 -530 0 0 
2299 264 -518 219 -79 -83 336 -525 -536 -531 0 0 
2300 257 -518 213 -86 -90 318 -526 -537 -530 0 0 
2301 255 -511 207 -69 -85 316 -521 -534 -531 0 0 
2302 246 -487 223 -78 -87 309 -519 -536 -529 0 0 
2303 237 -474 248 -92 -88 301 -515 -536 -529 0 0 
2304 247 -495 255 -85 -80 306 -515 -537 -530 0 0 
2305 267 -511 251 -65 -87 306 -516 -536 -530 0 0 
2306 264 -518 245 -70 -97 333 -512 -535 -529 0 0 
2307 268 -530 241 -83 -92 324 -513 -537 -529 0 0 
2308 270 -531 228 -71 -96 332 -517 -535 -530 0 0 
2309 274 -536 213 -80 -95 320 -515 -534 -529 0 0 
2310 270 -522 211 -89 -100 323 -523 -535 -530 0 0 
2311 259 -521 217 -73 -84 306 -521 -535 -531 0 0 
2312 261 -516 218 -70 -97 328 -513 -535 -529 0 0 
2313 256 -506 211 -64 -97 335 -511 -535 -530 0 0 
2314 244 -490 225 -74 -77 335 -511 -536 -529 0 0 
2315 236 -484 246 -80 -89 354 -516 -534 -531 0 0 
2316 247 -484 257 -82 -90 353 -516 -536 -529 0 0 
2317 258 -506 251 -88 -84 335 -522 -535 -530 0 0 
2318 265 -523 243 -75 -80 319 -522 -535 -531 0 0 
2319 268 -527 241 -70 -91 310 -523 -535 -530 0 0 
2320 275 -536 231 -74 -91 310 -521 -534 -530 0 0 
2321 277 -532 216 -70 -93 311 -513 -533 -530 0 0 
2322 272 -522 212 -78 -92 327 -514 -536 -529 0 0 
2323 260 -514 220 -61 -85 332 -509 -533 -531 0 0 
