% Mike Stanley's IMU Data Logger
% Date & Time   Monday 14 February 2011  -  12:32:29 PM
% MagX, AccX and GyroX values are centered at 0 LSB
% Accelerometer Range = +/- 6g
% Gyroscope     Range = +/- 2000 degrees/second
% Magnetometer  Range = +/- 200uT
% Recorder      Michael Stanley
% Comments      Roughly 11.25X8.75X1 3/15 book with sensor mounted in center top pushed off table.  This data set was manually truncated to remove most of the data from the "hit the floor" event (a cushion was used to break the fall anyway).
% SampleNumber MagX MagY MagZ AccX AccY AccZ GyroR GyroP GyroY LButton RButton
1 334 128 409 14 6 353 -515 -534 -529 0 0 
2 338 128 410 14 6 353 -515 -534 -530 0 0 
3 340 130 411 14 7 354 -515 -534 -530 0 0 
4 337 125 412 14 6 354 -515 -533 -529 0 0 
5 337 133 411 14 7 353 -515 -534 -529 0 0 
6 337 126 413 14 6 354 -515 -533 -530 0 0 
7 338 121 411 14 6 354 -515 -533 -529 0 0 
8 337 133 412 14 7 353 -515 -534 -529 0 0 
9 337 130 411 14 7 353 -515 -534 -529 0 0 
10 337 128 413 14 6 353 -516 -534 -529 0 0 
11 334 133 412 14 6 353 -515 -534 -529 0 0 
12 337 129 412 14 6 354 -515 -534 -529 0 0 
13 336 129 411 14 6 354 -515 -533 -530 0 0 
14 335 130 411 14 7 355 -515 -534 -529 0 0 
15 335 124 413 14 6 353 -514 -534 -529 0 0 
16 337 135 413 14 7 353 -515 -533 -529 0 0 
17 338 128 413 14 7 353 -515 -534 -529 0 0 
18 337 129 413 13 7 351 -514 -533 -529 0 0 
19 335 125 412 13 7 350 -515 -534 -529 0 0 
20 336 123 411 13 7 352 -515 -534 -529 0 0 
21 336 130 411 13 7 351 -515 -534 -529 0 0 
22 336 132 412 13 7 351 -515 -534 -529 0 0 
23 337 127 412 13 7 353 -515 -534 -529 0 0 
24 338 132 412 14 6 354 -515 -534 -529 0 0 
25 336 127 411 14 6 354 -516 -534 -529 0 0 
26 338 126 412 14 6 355 -515 -534 -529 0 0 
27 336 131 413 15 6 354 -516 -534 -529 0 0 
28 339 124 412 15 5 356 -515 -534 -529 0 0 
29 337 128 412 15 6 357 -515 -534 -529 0 0 
30 335 132 412 15 6 356 -515 -534 -529 0 0 
31 336 127 411 14 6 353 -515 -533 -529 0 0 
32 337 128 411 14 7 353 -514 -534 -529 0 0 
33 341 132 411 13 7 353 -515 -534 -529 0 0 
34 338 132 412 12 8 349 -515 -534 -529 0 0 
35 340 128 412 12 8 348 -515 -534 -529 0 0 
36 335 127 411 12 8 348 -515 -534 -529 0 0 
37 336 127 411 13 7 351 -515 -534 -529 0 0 
38 334 129 412 13 6 353 -516 -534 -529 0 0 
39 336 132 411 13 6 355 -516 -534 -530 0 0 
40 333 130 412 14 5 356 -515 -534 -529 0 0 
41 338 129 411 15 5 356 -515 -534 -529 0 0 
42 336 124 412 15 6 357 -515 -534 -529 0 0 
43 336 124 412 15 6 357 -515 -534 -529 0 0 
44 336 128 413 15 6 356 -515 -534 -529 0 0 
45 338 124 412 15 8 352 -515 -534 -529 0 0 
46 337 126 412 14 8 351 -515 -534 -529 0 0 
47 336 126 412 14 8 351 -515 -534 -529 0 0 
48 335 132 410 13 7 354 -514 -534 -529 0 0 
49 335 130 410 13 7 355 -515 -534 -529 0 0 
50 335 128 411 13 6 355 -515 -534 -529 0 0 
51 336 129 412 14 6 356 -515 -534 -529 0 0 
52 337 126 412 15 6 357 -515 -534 -529 0 0 
53 334 134 411 15 6 356 -515 -534 -529 0 0 
54 336 130 413 14 7 351 -516 -534 -529 0 0 
55 337 134 413 14 7 349 -515 -534 -529 0 0 
56 336 132 412 13 8 350 -515 -534 -529 0 0 
57 333 129 413 13 8 351 -516 -534 -529 0 0 
58 340 131 412 12 8 352 -515 -534 -529 0 0 
59 337 131 413 12 7 352 -515 -535 -529 0 0 
60 336 131 413 13 6 353 -515 -534 -529 0 0 
61 338 132 412 14 5 356 -515 -534 -529 0 0 
62 337 126 413 15 5 356 -515 -534 -529 0 0 
63 338 128 414 16 6 355 -515 -534 -529 0 0 
64 340 127 410 16 6 353 -515 -533 -529 0 0 
65 338 125 412 16 7 353 -515 -534 -529 0 0 
66 334 131 412 15 7 352 -516 -534 -529 0 0 
67 334 129 412 13 7 352 -515 -534 -529 0 0 
68 338 130 412 13 7 352 -515 -534 -529 0 0 
69 335 123 412 12 7 352 -515 -534 -529 0 0 
70 339 130 412 12 6 352 -515 -533 -529 0 0 
71 339 128 412 13 6 353 -515 -533 -529 0 0 
72 336 128 411 13 6 353 -515 -534 -530 0 0 
73 336 134 412 13 6 352 -516 -534 -529 0 0 
74 333 125 411 14 7 353 -515 -534 -529 0 0 
75 334 131 411 15 7 354 -515 -534 -529 0 0 
76 336 130 414 15 8 353 -515 -534 -530 0 0 
77 336 130 410 14 8 351 -515 -534 -529 0 0 
78 335 125 410 14 8 352 -516 -535 -530 0 0 
79 334 122 412 13 7 353 -515 -534 -530 0 0 
80 335 127 412 14 6 355 -515 -534 -529 0 0 
81 333 122 411 14 6 355 -515 -534 -529 0 0 
82 336 123 411 14 5 355 -515 -534 -529 0 0 
83 340 129 412 15 5 356 -515 -534 -529 0 0 
84 336 125 413 15 6 356 -515 -535 -529 0 0 
85 335 128 413 15 6 355 -514 -534 -529 0 0 
86 333 131 413 14 7 353 -515 -534 -529 0 0 
87 335 128 412 14 8 351 -515 -533 -529 0 0 
88 334 131 412 13 8 351 -515 -534 -529 0 0 
89 336 130 411 13 8 352 -515 -534 -529 0 0 
90 336 131 412 13 7 350 -515 -534 -530 0 0 
91 337 131 411 12 7 350 -516 -534 -529 0 0 
92 337 123 412 13 6 352 -515 -534 -529 0 0 
93 336 121 411 13 6 354 -515 -534 -529 0 0 
94 335 128 413 14 6 355 -515 -534 -529 0 0 
95 334 121 415 14 6 354 -515 -534 -529 0 0 
96 335 126 411 15 6 354 -515 -534 -529 0 0 
97 341 119 412 15 7 355 -515 -534 -530 0 0 
98 335 123 414 15 7 355 -515 -533 -529 0 0 
99 338 123 413 15 7 353 -515 -534 -529 0 0 
100 333 125 413 14 7 353 -515 -534 -529 0 0 
101 334 120 410 14 7 352 -515 -534 -530 0 0 
102 333 123 414 13 6 353 -516 -534 -529 0 0 
103 338 127 410 13 6 354 -515 -534 -529 0 0 
104 336 124 412 13 6 353 -514 -534 -529 0 0 
105 335 125 414 13 6 353 -515 -534 -529 0 0 
106 339 126 412 14 7 353 -515 -534 -529 0 0 
107 341 124 410 14 7 352 -515 -534 -529 0 0 
108 335 127 414 14 7 352 -515 -533 -529 0 0 
109 338 127 413 14 7 351 -515 -534 -529 0 0 
110 337 126 410 14 7 352 -515 -534 -530 0 0 
111 334 130 414 13 7 353 -515 -534 -529 0 0 
112 337 128 414 13 6 353 -515 -534 -529 0 0 
113 337 125 411 13 6 354 -515 -534 -529 0 0 
114 337 123 412 13 6 354 -515 -534 -529 0 0 
115 335 127 411 14 6 355 -514 -534 -529 0 0 
116 335 125 413 15 6 354 -514 -534 -529 0 0 
117 333 125 412 15 7 353 -515 -534 -529 0 0 
118 337 125 413 15 7 352 -515 -534 -529 0 0 
119 338 130 412 14 7 352 -515 -533 -529 0 0 
120 334 131 410 13 7 352 -515 -534 -529 0 0 
121 336 131 411 13 7 352 -515 -534 -529 0 0 
122 337 126 413 12 6 353 -515 -533 -530 0 0 
123 341 129 412 12 6 354 -515 -534 -529 0 0 
124 334 117 412 13 6 353 -516 -534 -530 0 0 
125 336 125 411 13 6 353 -515 -534 -529 0 0 
126 336 131 412 14 6 354 -515 -534 -529 0 0 
127 335 127 413 15 7 354 -515 -534 -529 0 0 
128 338 131 412 15 7 353 -515 -534 -529 0 0 
129 337 128 411 15 7 353 -515 -534 -529 0 0 
130 335 124 411 14 7 352 -515 -533 -529 0 0 
131 335 125 412 14 7 353 -514 -534 -529 0 0 
132 335 125 412 14 7 354 -515 -534 -529 0 0 
133 336 123 412 14 6 355 -515 -534 -528 0 0 
134 337 121 412 13 6 354 -515 -534 -529 0 0 
135 334 124 412 14 6 354 -515 -534 -529 0 0 
136 333 123 414 14 6 355 -515 -533 -529 0 0 
137 338 123 411 15 6 354 -515 -534 -529 0 0 
138 337 125 413 14 7 353 -515 -534 -529 0 0 
139 341 119 412 14 7 352 -516 -534 -529 0 0 
140 334 124 413 14 8 351 -515 -534 -529 0 0 
141 335 130 412 13 8 352 -515 -534 -529 0 0 
142 336 131 411 13 7 351 -515 -534 -529 0 0 
143 337 134 415 13 7 351 -515 -533 -529 0 0 
144 337 129 413 13 6 352 -515 -533 -529 0 0 
145 335 134 413 13 6 353 -515 -534 -530 0 0 
146 335 127 413 14 6 354 -515 -534 -529 0 0 
147 335 131 412 15 6 354 -515 -534 -529 0 0 
148 336 127 413 15 6 354 -516 -534 -529 0 0 
149 337 120 413 15 7 354 -516 -533 -529 0 0 
150 339 127 411 15 7 353 -515 -534 -529 0 0 
151 335 128 411 14 7 354 -515 -534 -530 0 0 
152 337 127 410 14 7 352 -515 -534 -529 0 0 
153 334 126 412 13 6 353 -515 -534 -529 0 0 
154 335 124 411 13 6 353 -515 -534 -530 0 0 
155 335 125 414 13 6 353 -515 -534 -529 0 0 
156 337 127 412 13 6 353 -516 -534 -529 0 0 
157 335 121 412 13 6 353 -515 -534 -529 0 0 
158 336 129 411 14 7 352 -515 -533 -529 0 0 
159 336 127 410 14 7 352 -515 -533 -529 0 0 
160 335 126 413 14 8 352 -515 -534 -529 0 0 
161 333 125 412 14 8 352 -515 -534 -529 0 0 
162 337 123 413 14 8 352 -515 -533 -529 0 0 
163 338 124 413 14 7 353 -515 -534 -529 0 0 
164 337 123 412 14 6 353 -515 -535 -529 0 0 
165 335 124 411 14 6 354 -515 -534 -529 0 0 
166 336 119 411 14 5 354 -515 -534 -529 0 0 
167 339 120 411 14 6 353 -515 -534 -530 0 0 
168 336 121 412 14 6 353 -515 -533 -529 0 0 
169 336 124 411 14 5 353 -515 -534 -530 0 0 
170 337 127 411 14 9 352 -514 -534 -529 0 0 
171 335 128 413 15 5 357 -515 -535 -529 0 0 
172 338 124 411 13 9 346 -515 -534 -529 0 0 
173 335 121 412 14 5 352 -515 -534 -529 0 0 
174 335 126 412 13 7 351 -515 -534 -529 0 0 
175 339 124 413 12 8 351 -514 -533 -528 0 0 
176 340 133 411 13 5 353 -515 -533 -529 0 0 
177 336 127 412 13 6 352 -515 -534 -529 0 0 
178 336 130 409 13 7 352 -515 -534 -529 0 0 
179 334 121 412 14 6 353 -515 -534 -529 0 0 
180 336 126 412 14 7 353 -515 -534 -529 0 0 
181 336 123 413 14 7 354 -516 -534 -529 0 0 
182 334 125 413 15 7 354 -515 -534 -529 0 0 
183 334 125 412 14 7 352 -516 -534 -529 0 0 
184 336 124 413 14 6 352 -515 -534 -530 0 0 
185 337 128 411 14 6 354 -515 -534 -529 0 0 
186 341 127 412 13 6 353 -515 -534 -529 0 0 
187 335 130 412 13 6 353 -515 -534 -529 0 0 
188 334 126 411 13 6 353 -515 -534 -529 0 0 
189 335 129 414 13 7 353 -515 -534 -529 0 0 
190 338 122 412 13 7 352 -515 -535 -530 0 0 
191 335 129 411 13 6 351 -515 -534 -529 0 0 
192 334 124 412 14 7 352 -515 -534 -529 0 0 
193 340 127 411 13 7 351 -515 -533 -529 0 0 
194 335 131 412 13 8 351 -515 -534 -529 0 0 
195 338 131 411 13 6 353 -515 -534 -530 0 0 
196 335 124 412 13 6 353 -515 -534 -529 0 0 
197 337 131 411 13 7 352 -516 -534 -530 0 0 
198 339 124 411 12 6 354 -515 -534 -530 0 0 
199 336 126 410 9 7 353 -515 -534 -530 0 0 
200 335 124 413 0 7 354 -515 -534 -529 0 0 
201 335 123 411 -27 4 355 -516 -534 -529 0 0 
202 335 120 413 -52 4 354 -514 -534 -529 0 0 
203 339 121 414 -49 7 356 -515 -535 -528 0 0 
204 339 118 412 -39 9 352 -515 -534 -529 0 0 
205 336 122 411 -37 8 354 -515 -534 -528 0 0 
206 335 125 414 -41 1 355 -515 -534 -528 0 0 
207 336 117 414 -46 -1 353 -514 -533 -527 0 0 
208 336 122 413 -45 2 354 -515 -534 -526 0 0 
209 337 116 416 -40 3 357 -514 -534 -525 0 0 
210 338 119 416 -37 4 354 -514 -534 -524 0 0 
211 338 121 414 -27 7 355 -515 -534 -524 0 0 
212 337 119 418 -25 11 353 -516 -535 -525 0 0 
213 339 119 417 -25 13 351 -515 -534 -526 0 0 
214 338 123 419 -17 14 355 -515 -534 -527 0 0 
215 340 128 419 -7 15 353 -515 -535 -529 0 0 
216 341 126 419 -5 15 355 -516 -534 -531 0 0 
217 339 127 420 -6 16 356 -515 -534 -533 0 0 
218 341 127 420 7 14 352 -515 -535 -534 0 0 
219 343 126 423 5 11 357 -516 -534 -535 0 0 
220 341 130 422 1 12 350 -516 -534 -535 0 0 
221 340 125 422 -2 6 356 -515 -534 -536 0 0 
222 340 127 425 -10 4 351 -515 -535 -535 0 0 
223 339 130 426 -13 3 352 -516 -534 -533 0 0 
224 341 129 427 -21 2 355 -515 -534 -533 0 0 
225 342 126 428 -23 1 350 -515 -534 -531 0 0 
226 342 128 427 -21 4 353 -515 -534 -530 0 0 
227 343 130 428 -19 9 353 -516 -534 -530 0 0 
228 344 130 430 -16 9 352 -515 -534 -529 0 0 
229 344 126 430 -12 11 356 -515 -533 -530 0 0 
230 345 129 431 -9 14 359 -515 -534 -531 0 0 
231 346 127 432 -2 14 353 -514 -534 -532 0 0 
232 344 125 434 1 14 358 -515 -534 -533 0 0 
233 343 131 435 4 15 350 -515 -534 -534 0 0 
234 345 131 438 11 15 355 -516 -533 -536 0 0 
235 346 126 437 13 13 354 -515 -534 -537 0 0 
236 346 137 439 17 12 353 -516 -534 -538 0 0 
237 344 128 439 16 9 350 -516 -534 -538 0 0 
238 345 132 439 15 8 357 -515 -534 -538 0 0 
239 345 130 440 6 5 357 -516 -534 -537 0 0 
240 345 137 443 -3 3 360 -515 -534 -535 0 0 
241 348 136 443 -5 5 352 -516 -534 -535 0 0 
242 346 136 444 3 8 354 -516 -534 -533 0 0 
243 349 130 446 3 5 354 -515 -534 -533 0 0 
244 346 127 447 2 6 360 -515 -534 -533 0 0 
245 350 129 448 4 7 352 -515 -535 -532 0 0 
246 348 138 451 8 6 355 -516 -534 -532 0 0 
247 348 128 452 5 10 361 -516 -534 -533 0 0 
248 351 135 453 5 11 355 -515 -533 -534 0 0 
249 351 132 453 12 13 354 -515 -534 -534 0 0 
250 347 135 453 13 14 353 -515 -535 -536 0 0 
251 350 133 454 14 12 361 -515 -534 -537 0 0 
252 347 133 455 8 10 356 -515 -534 -537 0 0 
253 349 130 458 0 3 354 -515 -534 -536 0 0 
254 352 131 457 -6 0 359 -515 -534 -535 0 0 
255 349 130 457 -12 -2 368 -515 -534 -534 0 0 
256 352 136 460 -17 -4 365 -514 -534 -531 0 0 
257 352 141 460 -18 -2 349 -516 -534 -529 0 0 
258 352 131 462 -13 -3 363 -515 -534 -527 0 0 
259 354 133 463 -11 0 357 -515 -533 -525 0 0 
260 355 133 465 3 4 369 -513 -534 -524 0 0 
261 358 135 466 1 4 353 -515 -533 -523 0 0 
262 360 138 466 11 8 365 -515 -534 -523 0 0 
263 358 138 467 30 16 358 -515 -534 -524 0 0 
264 357 140 468 46 15 361 -515 -533 -526 0 0 
265 355 136 470 27 10 364 -516 -533 -527 0 0 
266 363 138 473 33 10 366 -515 -534 -528 0 0 
267 360 133 474 27 8 361 -515 -534 -529 0 0 
268 359 136 475 20 7 351 -516 -534 -529 0 0 
269 360 134 474 28 3 372 -516 -534 -529 0 0 
270 360 135 476 18 0 360 -514 -533 -528 0 0 
271 365 134 476 9 -2 357 -515 -536 -526 0 0 
272 366 132 478 8 -3 358 -515 -533 -525 0 0 
273 362 127 476 -2 -3 344 -515 -535 -522 0 0 
274 370 131 479 4 -3 378 -514 -535 -520 0 0 
275 364 130 481 -6 -1 367 -514 -533 -517 0 0 
276 365 130 481 -5 0 355 -515 -534 -516 0 0 
277 367 129 483 1 3 369 -515 -533 -516 0 0 
278 368 124 482 0 3 371 -515 -534 -516 0 0 
279 366 112 485 12 5 365 -515 -532 -516 0 0 
280 368 124 487 9 7 360 -514 -533 -516 0 0 
281 369 117 488 14 8 360 -515 -534 -518 0 0 
282 372 119 488 8 9 354 -514 -535 -520 0 0 
283 371 115 490 9 8 352 -516 -535 -521 0 0 
284 371 115 491 13 8 373 -515 -535 -521 0 0 
285 378 117 492 16 8 366 -515 -535 -522 0 0 
286 375 112 490 12 6 327 -515 -541 -523 0 0 
287 379 117 492 -68 13 115 -517 -561 -522 0 0 
288 379 114 494 -98 -17 202 -506 -524 -523 0 0 
289 384 113 495 -39 14 406 -516 -536 -521 0 0 
290 380 107 496 -57 -4 294 -513 -531 -521 0 0 
291 381 117 497 -13 10 414 -512 -536 -520 0 0 
292 383 109 497 -35 13 330 -515 -535 -520 0 0 
293 382 121 498 -21 8 382 -514 -534 -520 0 0 
294 383 114 502 -24 13 365 -515 -535 -521 0 0 
295 387 114 500 -8 15 394 -514 -533 -523 0 0 
296 386 118 503 -22 16 335 -514 -537 -524 0 0 
297 388 107 504 -20 15 336 -515 -535 -526 0 0 
298 388 110 504 -12 10 362 -516 -537 -526 0 0 
299 387 106 506 -8 10 370 -515 -538 -528 0 0 
300 388 106 505 -7 12 371 -515 -540 -529 0 0 
301 394 106 508 -11 13 335 -516 -544 -529 0 0 
302 393 105 508 -2 10 345 -516 -546 -530 0 0 
303 398 105 508 2 9 358 -516 -549 -531 0 0 
304 400 111 507 0 12 347 -515 -551 -531 0 0 
305 403 111 509 1 17 328 -516 -554 -532 0 0 
306 404 116 507 1 15 320 -516 -556 -533 0 0 
307 406 114 505 3 14 322 -516 -560 -535 0 0 
308 413 116 502 8 15 327 -516 -562 -535 0 0 
309 419 118 501 8 17 316 -516 -567 -537 0 0 
310 422 113 499 11 16 306 -517 -572 -538 0 0 
311 429 105 497 9 10 249 -517 -577 -539 0 0 
312 435 104 493 24 13 268 -517 -582 -539 0 0 
313 441 109 488 36 11 287 -517 -588 -540 0 0 
314 449 111 483 39 7 219 -517 -594 -541 0 0 
315 462 113 478 46 8 212 -516 -601 -540 0 0 
316 464 115 471 53 9 221 -516 -607 -540 0 0 
317 475 117 462 55 8 218 -517 -615 -541 0 0 
318 485 120 453 56 4 195 -517 -622 -541 0 0 
319 503 119 442 52 5 167 -516 -629 -540 0 0 
320 510 113 431 50 6 151 -517 -638 -539 0 0 
321 523 112 419 48 3 126 -517 -646 -540 0 0 
322 538 116 402 50 4 115 -515 -654 -539 0 0 
323 551 116 388 50 7 99 -516 -662 -540 0 0 
324 568 117 369 53 4 72 -518 -670 -539 0 0 
325 582 121 349 56 2 68 -517 -677 -540 0 0 
326 595 118 329 58 2 51 -516 -684 -539 0 0 
327 610 121 305 65 4 37 -514 -690 -539 0 0 
328 626 117 282 70 6 30 -514 -696 -539 0 0 
329 640 121 256 73 4 32 -514 -699 -538 0 0 
330 657 122 228 76 2 28 -513 -703 -539 0 0 
331 668 126 201 80 6 29 -512 -703 -539 0 0 
332 680 119 169 82 6 27 -513 -703 -538 0 0 
333 692 123 140 82 6 32 -513 -702 -539 0 0 
334 699 136 110 82 6 32 -514 -701 -538 0 0 
335 707 137 75 84 4 38 -513 -705 -538 0 0 
336 716 145 39 133 14 -50 -516 -722 -537 0 0 
337 719 150 4 103 -14 89 -511 -729 -541 0 0 
338 719 154 -30 100 22 -40 -497 -718 -542 0 0 
339 721 155 -66 101 6 105 -511 -720 -540 0 0 
340 716 160 -98 103 7 34 -509 -721 -540 0 0 
341 714 156 -128 99 10 41 -506 -720 -541 0 0 
342 713 170 -162 100 9 47 -510 -721 -540 0 0 
343 709 173 -190 99 9 45 -508 -719 -540 0 0 
344 695 179 -221 99 9 45 -510 -719 -540 0 0 
345 694 182 -251 99 9 43 -509 -719 -540 0 0 
346 688 180 -279 98 8 46 -511 -718 -540 0 0 
347 676 193 -309 98 8 41 -510 -717 -540 0 0 
348 665 189 -338 97 8 44 -511 -717 -540 0 0 
349 658 198 -367 97 8 40 -511 -717 -539 0 0 
350 649 197 -396 97 8 40 -512 -717 -539 0 0 
