% Mike Stanley's IMU Data Logger
% Date & Time   Monday 14 February 2011  -  12:32:29 PM
% MagX, AccX and GyroX values are centered at 0 LSB
% Accelerometer Range = +/- 6g
% Gyroscope     Range = +/- 2000 degrees/second
% Magnetometer  Range = +/- 200uT
% Recorder      Michael Stanley
% Comments      Roughly 11.25X8.75X1 3/15 book with sensor mounted in center bottom pushed off table.  "Spun" off table top.  This data set was manually truncated to remove the "hitting the floor" event.
% SampleNumber MagX MagY MagZ AccX AccY AccZ GyroR GyroP GyroY LButton RButton
1 331 -82 470 -9 -2 354 -515 -534 -529 0 0 
2 333 -72 471 -9 -2 354 -515 -535 -530 0 0 
3 331 -75 469 -9 -2 353 -515 -534 -529 0 0 
4 333 -77 471 -9 -2 353 -516 -534 -529 0 0 
5 337 -74 471 -9 -1 354 -515 -534 -529 0 0 
6 334 -77 468 -9 -1 354 -515 -534 -529 0 0 
7 332 -84 471 -9 -1 354 -515 -534 -529 0 0 
8 338 -80 467 -9 -2 353 -515 -534 -529 0 0 
9 332 -77 468 -9 -2 353 -515 -535 -529 0 0 
10 334 -77 469 -9 -2 354 -515 -534 -529 0 0 
11 332 -77 469 -9 -2 354 -515 -534 -529 0 0 
12 332 -88 467 -9 -2 354 -515 -534 -529 0 0 
13 331 -82 470 -9 -2 353 -515 -535 -529 0 0 
14 330 -76 468 -9 -2 354 -515 -534 -528 0 0 
15 333 -79 468 -9 -2 354 -514 -534 -529 0 0 
16 332 -78 469 -9 -2 354 -515 -534 -529 0 0 
17 332 -80 467 -9 -1 352 -515 -535 -528 0 0 
18 332 -76 467 -9 -1 355 -516 -534 -529 0 0 
19 332 -80 468 -9 -1 355 -516 -533 -529 0 0 
20 331 -78 469 -9 -1 355 -516 -534 -529 0 0 
21 330 -76 469 -9 -2 354 -515 -534 -529 0 0 
22 332 -75 469 -9 -2 353 -515 -534 -529 0 0 
23 331 -77 468 -9 -2 353 -515 -534 -529 0 0 
24 334 -80 470 -9 -2 354 -515 -534 -530 0 0 
25 333 -80 470 -9 -2 353 -515 -533 -529 0 0 
26 332 -80 469 -9 -1 354 -516 -533 -529 0 0 
27 332 -80 470 -9 -2 354 -515 -534 -529 0 0 
28 330 -76 467 -9 -2 353 -516 -535 -529 0 0 
29 333 -74 466 -9 -2 353 -515 -534 -529 0 0 
30 332 -76 470 -9 -2 354 -515 -534 -529 0 0 
31 334 -79 468 -9 -2 354 -515 -534 -529 0 0 
32 334 -84 468 -9 -2 354 -515 -534 -529 0 0 
33 333 -75 470 -9 -1 354 -515 -534 -529 0 0 
34 331 -81 469 -9 -1 355 -515 -535 -529 0 0 
35 332 -80 468 -9 -2 355 -515 -534 -529 0 0 
36 331 -80 466 -9 -2 354 -515 -535 -529 0 0 
37 334 -81 467 -9 -2 354 -515 -534 -529 0 0 
38 332 -81 469 -9 -2 354 -515 -534 -529 0 0 
39 331 -78 468 -9 -2 354 -515 -534 -529 0 0 
40 333 -79 470 -9 -2 352 -515 -534 -529 0 0 
41 334 -81 468 -9 -2 353 -515 -534 -529 0 0 
42 333 -75 469 -9 -1 354 -515 -534 -529 0 0 
43 332 -77 469 -9 -2 355 -515 -534 -529 0 0 
44 337 -80 470 -9 -2 354 -514 -534 -529 0 0 
45 333 -73 470 -9 -2 354 -515 -534 -530 0 0 
46 330 -72 467 -9 -2 353 -514 -534 -529 0 0 
47 333 -75 469 -9 -2 355 -515 -534 -529 0 0 
48 333 -81 469 -9 -1 354 -515 -534 -529 0 0 
49 333 -78 468 -9 -1 354 -515 -534 -529 0 0 
50 331 -81 469 -9 -1 353 -514 -534 -529 0 0 
51 333 -78 467 -9 -1 354 -515 -533 -530 0 0 
52 332 -83 470 -9 -1 355 -515 -534 -529 0 0 
53 333 -77 468 -9 -2 353 -515 -533 -529 0 0 
54 332 -78 469 -9 -2 353 -515 -533 -529 0 0 
55 331 -78 469 -9 -2 354 -515 -534 -529 0 0 
56 332 -78 469 -9 -2 355 -515 -534 -529 0 0 
57 333 -81 469 -9 -2 354 -515 -534 -529 0 0 
58 334 -76 468 -9 -2 354 -516 -534 -529 0 0 
59 333 -74 469 -9 -1 355 -515 -534 -529 0 0 
60 331 -78 467 -9 -1 355 -515 -534 -530 0 0 
61 331 -84 470 -9 -1 355 -516 -534 -529 0 0 
62 331 -80 467 -9 -1 353 -515 -534 -529 0 0 
63 333 -81 468 -9 -1 353 -515 -534 -529 0 0 
64 334 -80 469 -9 -1 354 -515 -534 -529 0 0 
65 330 -79 470 -9 -2 354 -515 -534 -529 0 0 
66 334 -77 468 -9 -2 353 -515 -534 -529 0 0 
67 333 -86 469 -9 -2 353 -515 -534 -528 0 0 
68 333 -76 469 -9 -2 354 -515 -535 -529 0 0 
69 333 -79 469 -9 -2 355 -515 -534 -529 0 0 
70 335 -78 469 -9 -2 354 -515 -534 -529 0 0 
71 332 -75 468 -9 -2 354 -515 -534 -529 0 0 
72 332 -76 468 -9 -1 354 -515 -534 -529 0 0 
73 333 -76 468 -9 -1 354 -515 -534 -529 0 0 
74 333 -74 469 -9 -1 354 -515 -534 -529 0 0 
75 336 -82 470 -9 -1 354 -515 -534 -529 0 0 
76 332 -81 468 -9 -1 354 -515 -534 -529 0 0 
77 332 -85 469 -9 -2 354 -515 -533 -529 0 0 
78 331 -80 470 -9 -2 355 -515 -534 -529 0 0 
79 331 -79 470 -9 -2 354 -516 -534 -529 0 0 
80 333 -79 469 -9 -2 354 -515 -534 -529 0 0 
81 332 -79 469 -9 -2 354 -515 -534 -529 0 0 
82 333 -82 468 -9 -1 354 -515 -534 -529 0 0 
83 335 -76 467 -9 -2 354 -515 -534 -529 0 0 
84 335 -77 470 -9 -1 354 -516 -534 -529 0 0 
85 332 -78 470 -9 -2 354 -515 -534 -529 0 0 
86 334 -83 470 -9 -2 354 -515 -533 -529 0 0 
87 333 -73 468 -9 -1 354 -515 -534 -529 0 0 
88 331 -84 470 -9 -2 353 -516 -534 -530 0 0 
89 336 -71 468 -9 -2 354 -515 -534 -530 0 0 
90 331 -74 467 -9 -2 354 -515 -535 -529 0 0 
91 331 -72 470 -9 -2 354 -515 -534 -529 0 0 
92 330 -76 469 -9 -2 354 -515 -534 -529 0 0 
93 333 -78 468 -9 -2 354 -515 -534 -529 0 0 
94 335 -76 469 -9 -2 354 -515 -533 -529 0 0 
95 332 -84 469 -9 -2 354 -515 -533 -529 0 0 
96 332 -73 470 -9 -2 354 -515 -535 -529 0 0 
97 331 -78 470 -9 -1 354 -515 -534 -529 0 0 
98 330 -78 471 -9 -1 354 -515 -535 -529 0 0 
99 332 -75 471 -9 -2 354 -515 -534 -529 0 0 
100 334 -83 469 -9 -2 354 -516 -534 -529 0 0 
101 338 -75 468 -9 -2 354 -516 -535 -529 0 0 
102 333 -85 469 -9 -2 355 -515 -534 -529 0 0 
103 333 -84 467 -9 -2 355 -515 -535 -529 0 0 
104 333 -76 469 -9 -2 354 -515 -534 -529 0 0 
105 334 -77 469 -9 -2 354 -515 -535 -529 0 0 
106 332 -75 469 -9 -2 354 -515 -534 -530 0 0 
107 331 -79 468 -9 -1 354 -515 -533 -530 0 0 
108 331 -77 469 -9 -1 354 -516 -534 -529 0 0 
109 333 -77 468 -9 -1 355 -515 -534 -529 0 0 
110 333 -79 468 -9 -2 354 -515 -534 -529 0 0 
111 332 -80 469 -9 -2 353 -515 -534 -529 0 0 
112 332 -83 470 -9 -2 354 -515 -534 -529 0 0 
113 332 -80 469 -9 -2 354 -515 -534 -530 0 0 
114 331 -78 470 -9 -2 354 -516 -534 -529 0 0 
115 332 -79 470 -9 -1 353 -515 -534 -529 0 0 
116 338 -76 471 -9 -2 354 -516 -534 -529 0 0 
117 332 -81 469 -9 -1 354 -515 -534 -529 0 0 
118 332 -76 469 -9 -1 354 -515 -533 -529 0 0 
119 332 -74 471 -9 -1 354 -515 -534 -529 0 0 
120 332 -80 469 -9 -2 355 -515 -534 -530 0 0 
121 334 -80 470 -9 -2 353 -516 -534 -530 0 0 
122 334 -79 467 -9 -2 354 -515 -535 -529 0 0 
123 333 -75 470 -9 -2 354 -515 -534 -529 0 0 
124 329 -77 469 -9 -2 354 -515 -533 -529 0 0 
125 331 -78 470 -9 -2 354 -515 -534 -529 0 0 
126 333 -75 468 -9 -2 353 -515 -534 -529 0 0 
127 333 -75 468 -9 -1 354 -515 -534 -529 0 0 
128 331 -81 467 -9 -1 354 -515 -534 -529 0 0 
129 332 -73 471 -9 -2 355 -515 -534 -529 0 0 
130 329 -75 469 -9 -2 354 -515 -534 -529 0 0 
131 332 -75 470 -9 -2 354 -516 -534 -529 0 0 
132 330 -79 468 -9 -2 354 -516 -534 -529 0 0 
133 334 -79 469 -9 -2 354 -514 -534 -528 0 0 
134 330 -83 469 -9 -2 354 -515 -533 -529 0 0 
135 331 -83 469 -9 -2 354 -515 -534 -529 0 0 
136 334 -76 469 -9 -1 354 -515 -534 -528 0 0 
137 331 -78 469 -9 -2 354 -515 -534 -529 0 0 
138 331 -76 469 -9 -2 354 -515 -534 -529 0 0 
139 332 -75 468 -9 -2 354 -516 -534 -529 0 0 
140 335 -73 469 -9 -2 354 -515 -534 -529 0 0 
141 332 -77 471 -9 -2 355 -515 -534 -529 0 0 
142 331 -81 473 -9 -2 354 -515 -534 -529 0 0 
143 330 -79 468 -9 -2 355 -515 -533 -529 0 0 
144 331 -76 471 -9 -2 355 -515 -534 -529 0 0 
145 330 -77 470 -9 -2 354 -515 -533 -530 0 0 
146 333 -75 469 -9 -2 354 -515 -534 -529 0 0 
147 331 -80 471 -9 -1 354 -516 -534 -529 0 0 
148 332 -78 470 -9 -1 355 -515 -534 -529 0 0 
149 334 -77 467 -9 -1 355 -515 -534 -529 0 0 
150 332 -76 470 -9 -1 355 -515 -534 -529 0 0 
151 332 -82 470 -9 -2 354 -516 -534 -529 0 0 
152 332 -77 469 -9 -2 354 -515 -534 -529 0 0 
153 332 -84 471 -9 -2 353 -515 -534 -529 0 0 
154 334 -79 469 -9 -2 355 -515 -534 -529 0 0 
155 330 -79 469 -9 -1 354 -515 -534 -529 0 0 
156 334 -79 467 -9 -1 354 -515 -534 -529 0 0 
157 331 -76 469 -8 -1 355 -515 -534 -529 0 0 
158 335 -75 468 -8 -2 354 -516 -533 -529 0 0 
159 332 -76 468 -9 -2 354 -515 -534 -529 0 0 
160 332 -78 471 -9 -2 355 -515 -534 -529 0 0 
161 332 -76 471 -9 -1 356 -515 -534 -529 0 0 
162 333 -75 470 -9 -2 356 -515 -534 -529 0 0 
163 333 -75 468 -9 -1 355 -515 -533 -529 0 0 
164 336 -84 471 -9 -1 353 -515 -534 -529 0 0 
165 332 -78 470 -9 -1 354 -515 -534 -529 0 0 
166 337 -72 468 -10 -3 356 -515 -534 -529 0 0 
167 330 -76 468 -9 -1 355 -515 -534 -529 0 0 
168 332 -77 469 -11 0 357 -515 -534 -529 0 0 
169 332 -77 469 -13 3 359 -516 -535 -529 0 0 
170 331 -77 469 -102 15 363 -517 -538 -530 0 0 
171 334 -74 466 -125 34 356 -518 -535 -538 0 0 
172 335 -71 470 -113 53 374 -520 -536 -549 0 0 
173 336 -63 470 -145 4 342 -520 -538 -569 0 0 
174 338 -63 471 -128 -31 350 -520 -537 -601 0 0 
175 347 -47 471 -127 -53 361 -520 -538 -635 0 0 
176 345 -40 470 -172 -230 356 -518 -538 -668 0 0 
177 347 -24 475 -161 46 331 -516 -535 -697 0 0 
178 346 -5 472 -138 72 332 -514 -531 -719 0 0 
179 349 11 473 -181 85 374 -517 -545 -732 0 0 
180 349 23 477 -103 39 294 -514 -535 -739 0 0 
181 347 30 478 -106 132 78 -502 -533 -732 0 0 
182 351 53 482 -144 57 308 -499 -528 -726 0 0 
183 346 60 482 -68 95 298 -494 -524 -718 0 0 
184 342 80 482 -36 62 516 -497 -538 -711 0 0 
185 346 94 480 -44 10 497 -512 -565 -709 0 0 
186 348 105 477 -59 -41 230 -500 -556 -703 0 0 
187 348 117 476 -51 53 579 -496 -602 -668 0 0 
188 352 126 471 -102 131 711 -527 -603 -670 0 0 
189 355 145 466 -91 -70 342 -532 -607 -701 0 0 
190 358 160 462 -101 -75 331 -520 -620 -705 0 0 
191 362 179 457 -103 -47 187 -508 -621 -707 0 0 
192 368 200 449 -101 -20 140 -489 -630 -706 0 0 
193 372 219 440 -102 -34 461 -479 -653 -706 0 0 
194 376 235 427 -122 27 467 -488 -659 -707 0 0 
195 380 251 418 -118 39 263 -483 -671 -706 0 0 
196 388 273 402 -120 -12 230 -482 -680 -705 0 0 
197 391 286 389 -130 -39 274 -474 -689 -705 0 0 
198 394 310 370 -136 -24 156 -466 -693 -706 0 0 
199 397 336 352 -144 -18 95 -452 -699 -705 0 0 
200 403 358 332 -148 -18 95 -445 -703 -705 0 0 
201 402 378 312 -153 -12 70 -436 -710 -704 0 0 
202 399 411 290 -158 -7 57 -432 -714 -704 0 0 
203 400 426 268 -161 -6 59 -427 -718 -702 0 0 
204 397 452 243 -163 2 36 -427 -722 -701 0 0 
205 391 483 218 -166 14 -5 -429 -725 -700 0 0 
206 387 505 196 -164 24 -10 -435 -728 -699 0 0 
207 377 519 174 -164 25 -12 -443 -729 -699 0 0 
208 368 544 150 -163 28 -10 -451 -733 -698 0 0 
209 357 561 126 -162 30 -5 -457 -732 -697 0 0 
210 345 580 108 -162 30 -3 -464 -732 -696 0 0 
211 330 590 89 -160 31 0 -472 -738 -696 0 0 
212 315 613 68 -160 34 -5 -478 -736 -695 0 0 
213 300 634 52 -159 35 4 -486 -737 -695 0 0 
214 278 650 38 -158 36 5 -493 -736 -696 0 0 
215 258 664 24 -157 38 6 -500 -736 -696 0 0 
216 234 684 14 -156 40 5 -508 -735 -695 0 0 
217 212 696 4 -155 42 4 -514 -735 -695 0 0 
218 192 697 -1 -153 46 3 -522 -734 -696 0 0 
219 161 716 -7 -151 47 3 -528 -734 -696 0 0 
220 138 729 -10 -150 49 3 -536 -732 -697 0 0 
221 109 732 -6 -148 51 2 -543 -730 -697 0 0 
222 81 741 -1 -144 55 2 -550 -728 -698 0 0 
223 53 757 2 -143 56 3 -556 -727 -699 0 0 
224 23 767 14 -141 58 2 -564 -724 -700 0 0 
