% Mike Stanley's IMU Data Logger
% Date & Time   Monday 14 February 2011  -  12:32:29 PM
% MagX, AccX and GyroX values are centered at 0 LSB
% Accelerometer Range = +/- 6g
% Gyroscope     Range = +/- 2000 degrees/second
% Magnetometer  Range = +/- 200uT
% Recorder      Michael Stanley
% Comments      Roughly 11.25X8.75X1 3/15 book with sensor mounted in 1 corner pushed off table at a 45 degree angle.  This data set was manually truncated to eliminate most of the data resulting from the "hit the floor" event  (a cushion was used to break the fall anyway).
% SampleNumber MagX MagY MagZ AccX AccY AccZ GyroR GyroP GyroY LButton RButton
1 152 360 457 11 24 352 -515 -533 -529 0 0 
2 152 363 458 11 24 353 -515 -534 -529 0 0 
3 154 368 455 11 23 354 -515 -533 -529 0 0 
4 153 362 457 11 24 354 -516 -534 -529 0 0 
5 157 362 456 11 24 354 -515 -534 -529 0 0 
6 153 369 459 11 23 355 -514 -533 -529 0 0 
7 155 358 457 12 23 355 -514 -534 -529 0 0 
8 153 364 457 12 24 354 -515 -534 -530 0 0 
9 155 363 456 12 24 354 -514 -534 -529 0 0 
10 156 359 455 12 24 354 -515 -534 -530 0 0 
11 154 369 457 11 24 354 -515 -534 -529 0 0 
12 154 362 457 11 24 355 -515 -533 -529 0 0 
13 154 366 457 11 23 353 -515 -533 -529 0 0 
14 153 368 457 11 23 354 -514 -534 -529 0 0 
15 154 364 455 11 23 353 -515 -534 -529 0 0 
16 154 366 459 11 23 351 -515 -535 -529 0 0 
17 155 365 456 11 23 351 -515 -534 -530 0 0 
18 157 368 457 11 23 352 -515 -534 -529 0 0 
19 153 366 458 10 23 351 -515 -534 -529 0 0 
20 153 366 456 10 23 352 -516 -535 -529 0 0 
21 155 368 458 11 23 354 -515 -534 -529 0 0 
22 153 362 457 11 23 354 -516 -534 -529 0 0 
23 153 364 456 12 23 355 -515 -534 -529 0 0 
24 157 356 454 12 24 355 -515 -534 -529 0 0 
25 154 368 459 13 24 355 -516 -533 -530 0 0 
26 152 364 455 13 24 358 -515 -534 -530 0 0 
27 154 361 456 13 24 357 -514 -533 -529 0 0 
28 155 364 459 13 24 355 -515 -534 -529 0 0 
29 155 357 458 11 24 353 -515 -534 -529 0 0 
30 154 358 456 11 24 353 -515 -534 -529 0 0 
31 154 361 457 10 24 352 -516 -534 -530 0 0 
32 155 367 457 10 23 352 -515 -534 -529 0 0 
33 153 365 455 10 23 352 -515 -534 -529 0 0 
34 155 359 456 10 23 352 -515 -535 -529 0 0 
35 155 367 456 11 23 353 -515 -534 -529 0 0 
36 156 363 457 11 23 354 -515 -534 -529 0 0 
37 155 363 456 12 23 355 -515 -534 -529 0 0 
38 152 364 456 12 23 355 -515 -534 -529 0 0 
39 154 366 457 12 24 355 -516 -534 -530 0 0 
40 154 362 455 12 24 354 -514 -534 -529 0 0 
41 155 362 456 11 24 354 -515 -533 -529 0 0 
42 157 366 456 11 24 355 -515 -534 -530 0 0 
43 157 361 456 11 24 354 -515 -533 -529 0 0 
44 154 365 457 12 24 354 -515 -533 -530 0 0 
45 154 361 455 12 23 356 -515 -534 -529 0 0 
46 154 364 454 12 23 357 -515 -534 -529 0 0 
47 154 366 457 12 23 355 -514 -534 -529 0 0 
48 153 367 459 12 24 353 -515 -534 -529 0 0 
49 156 364 458 11 24 353 -515 -534 -529 0 0 
50 155 366 458 11 24 352 -515 -533 -529 0 0 
51 152 367 458 11 24 351 -515 -534 -529 0 0 
52 155 363 455 10 23 351 -515 -535 -529 0 0 
53 153 361 456 10 23 351 -515 -534 -529 0 0 
54 154 367 459 11 23 352 -515 -534 -529 0 0 
55 160 364 457 11 23 354 -515 -534 -529 0 0 
56 155 365 456 11 23 354 -515 -534 -529 0 0 
57 153 365 457 11 23 353 -516 -534 -529 0 0 
58 154 366 456 12 24 355 -516 -534 -529 0 0 
59 155 366 457 12 24 355 -515 -534 -529 0 0 
60 154 365 455 12 24 354 -515 -534 -529 0 0 
61 153 361 457 12 24 355 -516 -534 -529 0 0 
62 152 365 457 12 24 354 -515 -533 -529 0 0 
63 158 370 457 12 24 355 -515 -533 -529 0 0 
64 154 368 457 12 23 355 -514 -534 -530 0 0 
65 158 367 458 11 23 354 -515 -533 -529 0 0 
66 152 363 458 11 23 354 -515 -533 -530 0 0 
67 154 368 456 11 23 354 -515 -533 -530 0 0 
68 153 371 456 11 23 352 -515 -533 -529 0 0 
69 156 368 458 11 23 352 -515 -533 -529 0 0 
70 152 364 458 11 24 353 -515 -534 -529 0 0 
71 152 363 457 11 24 352 -515 -533 -529 0 0 
72 154 367 456 11 24 352 -514 -534 -529 0 0 
73 154 361 456 11 24 353 -515 -534 -529 0 0 
74 155 366 457 11 23 353 -515 -533 -529 0 0 
75 154 369 456 11 23 354 -515 -533 -529 0 0 
76 154 365 456 12 23 355 -515 -534 -529 0 0 
77 154 367 456 12 23 355 -515 -534 -529 0 0 
78 153 364 457 12 23 355 -515 -534 -529 0 0 
79 154 355 455 12 24 355 -515 -534 -529 0 0 
80 155 363 457 12 24 356 -516 -534 -529 0 0 
81 156 366 456 12 24 355 -515 -534 -529 0 0 
82 152 363 458 12 24 354 -515 -534 -529 0 0 
83 153 366 457 11 24 354 -515 -534 -529 0 0 
84 152 369 458 11 23 352 -515 -534 -529 0 0 
85 155 366 457 11 23 352 -515 -534 -529 0 0 
86 155 365 457 11 23 352 -515 -534 -529 0 0 
87 152 362 457 11 23 352 -515 -534 -529 0 0 
88 153 364 455 11 23 353 -515 -534 -528 0 0 
89 151 365 458 11 23 353 -514 -534 -529 0 0 
90 153 366 456 11 24 353 -515 -534 -529 0 0 
91 153 362 457 12 24 355 -515 -533 -529 0 0 
92 152 359 458 12 24 354 -515 -534 -529 0 0 
93 152 369 455 12 24 354 -515 -534 -529 0 0 
94 153 358 456 12 24 355 -515 -534 -529 0 0 
95 152 364 456 12 24 354 -515 -533 -530 0 0 
96 158 363 456 12 24 354 -515 -534 -530 0 0 
97 154 366 457 12 23 355 -515 -533 -529 0 0 
98 152 365 459 12 23 355 -515 -534 -529 0 0 
99 152 360 457 11 23 354 -515 -533 -529 0 0 
100 155 365 458 11 24 353 -515 -534 -529 0 0 
101 154 366 457 11 24 353 -515 -534 -529 0 0 
102 160 369 457 11 24 352 -514 -534 -529 0 0 
103 158 361 458 11 24 352 -516 -533 -530 0 0 
104 155 363 458 11 23 351 -515 -534 -529 0 0 
105 155 368 456 11 24 352 -515 -534 -529 0 0 
106 154 363 456 11 23 353 -515 -533 -529 0 0 
107 155 356 456 11 23 354 -515 -534 -529 0 0 
108 154 359 457 12 23 354 -516 -534 -529 0 0 
109 156 360 457 12 23 354 -516 -534 -530 0 0 
110 155 366 458 12 23 355 -515 -534 -529 0 0 
111 157 369 459 12 24 355 -515 -533 -529 0 0 
112 156 367 456 12 24 355 -515 -533 -529 0 0 
113 157 362 455 12 24 354 -515 -534 -529 0 0 
114 152 363 458 11 24 353 -515 -534 -529 0 0 
115 155 367 457 11 24 354 -515 -534 -529 0 0 
116 154 362 457 11 23 353 -515 -534 -529 0 0 
117 152 361 457 11 23 353 -515 -534 -530 0 0 
118 154 361 457 11 23 353 -516 -533 -529 0 0 
119 157 363 456 11 23 353 -516 -533 -529 0 0 
120 155 366 457 11 23 353 -515 -534 -529 0 0 
121 153 360 457 11 23 353 -515 -534 -529 0 0 
122 153 357 457 11 23 354 -515 -534 -529 0 0 
123 153 358 458 11 23 353 -515 -534 -529 0 0 
124 155 363 456 11 24 352 -516 -534 -529 0 0 
125 158 362 456 11 24 354 -515 -534 -529 0 0 
126 155 355 457 11 24 354 -515 -534 -529 0 0 
127 154 359 457 11 24 354 -515 -534 -529 0 0 
128 154 358 457 12 23 354 -515 -534 -529 0 0 
129 154 362 457 12 24 355 -515 -533 -529 0 0 
130 154 358 457 12 23 355 -516 -534 -529 0 0 
131 153 354 457 12 24 355 -516 -534 -530 0 0 
132 155 363 456 12 24 354 -515 -534 -530 0 0 
133 154 361 458 12 23 354 -515 -534 -529 0 0 
134 153 357 458 11 24 354 -515 -534 -529 0 0 
135 157 360 457 11 24 353 -515 -534 -529 0 0 
136 153 354 455 11 23 353 -514 -534 -529 0 0 
137 154 360 457 11 23 353 -516 -534 -529 0 0 
138 154 361 459 11 23 353 -515 -533 -529 0 0 
139 153 358 457 11 23 352 -516 -533 -529 0 0 
140 153 364 457 11 23 352 -515 -533 -529 0 0 
141 156 367 458 11 23 354 -516 -534 -529 0 0 
142 155 364 458 11 23 354 -515 -534 -529 0 0 
143 154 369 457 12 24 354 -515 -534 -529 0 0 
144 154 366 458 11 24 355 -515 -534 -530 0 0 
145 155 368 456 11 24 353 -515 -534 -530 0 0 
146 155 368 458 11 24 353 -515 -534 -529 0 0 
147 155 364 457 11 24 354 -514 -534 -529 0 0 
148 154 366 459 12 23 355 -515 -534 -529 0 0 
149 157 361 456 12 23 354 -515 -534 -529 0 0 
150 160 370 457 12 23 355 -515 -534 -529 0 0 
151 154 368 455 12 23 356 -515 -533 -529 0 0 
152 157 367 457 12 23 354 -515 -534 -529 0 0 
153 154 358 458 11 23 353 -515 -534 -529 0 0 
154 155 367 455 11 24 353 -514 -533 -529 0 0 
155 152 359 455 11 24 353 -516 -534 -529 0 0 
156 152 355 458 11 24 353 -515 -533 -529 0 0 
157 156 361 454 11 23 353 -515 -534 -529 0 0 
158 154 366 458 11 23 353 -515 -534 -530 0 0 
159 156 366 456 11 23 353 -515 -534 -529 0 0 
160 155 365 455 11 23 354 -514 -533 -529 0 0 
161 157 356 458 12 23 355 -514 -534 -529 0 0 
162 154 362 456 12 23 355 -515 -533 -529 0 0 
163 155 363 457 12 24 354 -514 -533 -529 0 0 
164 156 371 457 12 24 354 -515 -534 -529 0 0 
165 155 365 457 12 24 354 -515 -534 -530 0 0 
166 153 367 457 12 24 353 -515 -534 -529 0 0 
167 151 363 457 11 24 354 -514 -533 -530 0 0 
168 156 357 455 11 23 353 -516 -534 -529 0 0 
169 155 355 459 11 23 353 -515 -534 -529 0 0 
170 154 356 456 11 23 353 -515 -534 -529 0 0 
171 153 362 458 11 23 352 -516 -534 -529 0 0 
172 154 364 458 11 22 352 -515 -534 -529 0 0 
173 154 363 458 11 23 353 -515 -533 -529 0 0 
174 156 360 456 12 23 352 -515 -533 -529 0 0 
175 151 368 456 12 23 352 -515 -534 -530 0 0 
176 155 364 454 11 24 353 -515 -534 -529 0 0 
177 158 366 457 11 23 354 -515 -534 -529 0 0 
178 156 368 457 11 23 354 -515 -534 -530 0 0 
179 156 365 458 11 23 354 -515 -534 -529 0 0 
180 155 364 458 11 23 353 -514 -534 -529 0 0 
181 153 367 458 11 23 355 -514 -534 -529 0 0 
182 153 362 456 11 23 355 -515 -533 -529 0 0 
183 155 363 456 10 22 354 -515 -534 -529 0 0 
184 153 368 455 -7 9 356 -515 -534 -529 0 0 
185 154 363 458 -17 2 355 -515 -534 -529 0 0 
186 156 362 456 -19 1 356 -515 -534 -530 0 0 
187 155 365 457 -18 0 355 -515 -534 -530 0 0 
188 154 359 457 -19 -1 355 -515 -534 -530 0 0 
189 155 366 456 -19 -2 355 -515 -534 -530 0 0 
190 153 367 457 -18 -3 355 -516 -535 -530 0 0 
191 157 365 460 -19 -3 355 -515 -533 -530 0 0 
192 152 365 458 -18 -3 355 -515 -534 -530 0 0 
193 155 365 460 -16 -5 356 -515 -534 -530 0 0 
194 155 363 457 -16 -5 355 -515 -534 -529 0 0 
195 154 361 458 -16 -4 356 -515 -534 -529 0 0 
196 152 360 458 -14 -3 357 -514 -534 -529 0 0 
197 157 364 460 -17 -2 355 -515 -533 -529 0 0 
198 154 367 459 -16 1 358 -515 -534 -529 0 0 
199 155 369 460 -15 3 359 -514 -534 -529 0 0 
200 155 366 462 -12 4 358 -515 -534 -529 0 0 
201 161 366 463 -11 4 356 -515 -535 -529 0 0 
202 155 369 461 -7 8 357 -515 -534 -529 0 0 
203 154 371 465 2 15 358 -515 -533 -529 0 0 
204 154 376 465 5 17 356 -515 -534 -529 0 0 
205 158 374 463 7 20 355 -515 -534 -529 0 0 
206 156 373 464 7 20 354 -514 -534 -529 0 0 
207 156 373 465 7 18 354 -514 -533 -529 0 0 
208 159 371 467 9 19 354 -515 -534 -529 0 0 
209 158 372 467 11 20 358 -515 -534 -528 0 0 
210 156 370 466 13 24 354 -515 -534 -527 0 0 
211 160 369 466 12 22 356 -515 -534 -528 0 0 
212 160 363 467 12 22 357 -515 -534 -527 0 0 
213 161 368 467 13 26 358 -515 -534 -527 0 0 
214 159 366 469 12 25 358 -515 -534 -527 0 0 
215 160 371 470 12 23 356 -515 -533 -526 0 0 
216 161 375 469 15 26 356 -515 -534 -527 0 0 
217 160 374 471 16 28 358 -515 -534 -527 0 0 
218 162 372 471 15 27 358 -515 -535 -527 0 0 
219 162 377 470 1 18 358 -515 -533 -527 0 0 
220 162 370 473 -6 15 359 -515 -534 -527 0 0 
221 161 372 471 -9 16 360 -515 -534 -528 0 0 
222 162 364 472 -17 9 358 -516 -534 -529 0 0 
223 163 370 472 -16 9 363 -515 -534 -529 0 0 
224 163 369 473 -15 10 360 -516 -534 -530 0 0 
225 162 373 474 -14 9 359 -515 -535 -531 0 0 
226 163 375 475 -9 11 359 -515 -534 -530 0 0 
227 164 377 477 -5 13 362 -515 -534 -531 0 0 
228 166 375 478 0 13 360 -515 -534 -531 0 0 
229 164 377 478 10 17 360 -515 -534 -531 0 0 
230 163 377 477 18 20 360 -515 -534 -530 0 0 
231 163 372 480 21 25 360 -515 -534 -530 0 0 
232 167 368 479 30 34 361 -514 -534 -529 0 0 
233 165 371 481 33 35 361 -515 -534 -529 0 0 
234 166 372 482 32 32 361 -515 -534 -528 0 0 
235 165 372 481 32 37 359 -514 -534 -528 0 0 
236 168 373 482 33 36 365 -514 -534 -527 0 0 
237 165 378 482 31 32 362 -515 -534 -527 0 0 
238 165 377 483 25 28 361 -515 -534 -526 0 0 
239 167 374 484 20 31 362 -514 -534 -526 0 0 
240 170 373 484 17 32 357 -514 -534 -526 0 0 
241 167 374 484 15 31 354 -514 -534 -526 0 0 
242 166 378 487 14 33 368 -514 -534 -527 0 0 
243 169 378 485 14 33 367 -514 -534 -528 0 0 
244 173 378 486 13 33 361 -515 -534 -528 0 0 
245 168 374 486 13 30 355 -513 -534 -528 0 0 
246 170 376 489 13 28 363 -513 -535 -529 0 0 
247 168 380 487 11 24 367 -514 -534 -530 0 0 
248 173 381 489 7 17 363 -514 -534 -529 0 0 
249 174 380 488 5 16 369 -514 -534 -529 0 0 
250 171 383 489 5 17 371 -514 -534 -529 0 0 
251 170 381 490 3 15 363 -514 -534 -528 0 0 
252 173 379 490 3 15 366 -515 -534 -528 0 0 
253 170 378 488 3 15 367 -515 -535 -528 0 0 
254 174 377 492 5 19 366 -514 -534 -527 0 0 
255 172 381 488 9 29 362 -514 -535 -528 0 0 
256 173 381 489 9 32 361 -514 -534 -528 0 0 
257 172 377 491 9 32 367 -514 -535 -529 0 0 
258 177 385 492 9 32 364 -514 -535 -530 0 0 
259 175 385 493 9 32 364 -513 -535 -530 0 0 
260 171 380 493 11 35 364 -513 -535 -531 0 0 
261 176 381 493 19 44 363 -514 -535 -532 0 0 
262 173 380 493 26 56 365 -513 -535 -532 0 0 
263 173 383 497 30 69 363 -512 -536 -533 0 0 
264 174 383 494 33 76 361 -512 -535 -535 0 0 
265 173 386 494 33 76 360 -512 -535 -536 0 0 
266 175 385 494 37 72 357 -511 -536 -537 0 0 
267 172 390 492 38 68 357 -511 -537 -539 0 0 
268 171 387 494 41 59 381 -511 -536 -540 0 0 
269 171 391 492 34 49 366 -511 -536 -540 0 0 
270 173 388 492 28 54 376 -511 -537 -541 0 0 
271 170 387 494 22 45 371 -512 -536 -542 0 0 
272 169 388 493 24 34 374 -513 -536 -543 0 0 
273 167 394 495 14 27 365 -513 -537 -544 0 0 
274 166 395 494 -2 31 366 -514 -536 -545 0 0 
275 165 395 493 -4 19 360 -514 -536 -546 0 0 
276 167 395 492 -6 12 369 -512 -537 -547 0 0 
277 165 393 494 -17 10 361 -512 -538 -547 0 0 
278 160 400 495 -18 8 379 -512 -537 -548 0 0 
279 165 401 492 -22 0 379 -513 -536 -548 0 0 
280 162 393 495 -34 -14 376 -513 -537 -547 0 0 
281 164 394 494 -33 -16 381 -515 -535 -546 0 0 
282 159 396 498 -26 -16 394 -516 -534 -544 0 0 
283 161 396 498 -22 -17 387 -519 -534 -542 0 0 
284 158 397 499 -5 4 382 -518 -534 -539 0 0 
285 157 389 500 4 23 369 -519 -534 -538 0 0 
286 156 396 499 9 27 362 -519 -534 -537 0 0 
287 158 397 501 7 14 371 -518 -534 -535 0 0 
288 157 398 502 7 18 374 -517 -534 -534 0 0 
289 156 400 504 8 21 364 -516 -535 -534 0 0 
290 159 394 501 14 31 371 -515 -536 -534 0 0 
291 157 403 504 21 48 365 -515 -535 -534 0 0 
292 158 404 505 27 61 353 -515 -536 -535 0 0 
293 154 405 503 43 73 369 -514 -536 -537 0 0 
294 156 403 503 49 58 388 -515 -535 -537 0 0 
295 156 407 508 46 38 381 -515 -535 -537 0 0 
296 159 409 502 40 25 369 -515 -534 -534 0 0 
297 157 409 505 36 10 370 -515 -536 -531 0 0 
298 154 401 505 30 10 360 -514 -535 -529 0 0 
299 158 407 506 24 14 355 -512 -536 -526 0 0 
300 162 412 506 19 27 368 -511 -536 -525 0 0 
301 161 408 508 14 27 374 -512 -536 -524 0 0 
302 161 405 506 9 23 373 -512 -535 -524 0 0 
303 162 404 507 1 25 383 -512 -535 -524 0 0 
304 161 405 507 3 37 387 -512 -534 -523 0 0 
305 166 410 509 5 48 383 -513 -535 -525 0 0 
306 162 401 507 7 51 379 -514 -534 -526 0 0 
307 165 403 509 11 44 379 -515 -534 -527 0 0 
308 169 400 509 14 46 380 -516 -534 -527 0 0 
309 165 407 510 23 46 378 -516 -533 -528 0 0 
310 165 405 510 26 43 379 -516 -534 -528 0 0 
311 165 409 512 26 34 375 -517 -533 -527 0 0 
312 166 410 512 27 24 367 -516 -534 -527 0 0 
313 168 415 511 30 23 356 -515 -535 -525 0 0 
314 167 411 512 33 24 359 -514 -534 -524 0 0 
315 168 403 510 35 21 357 -513 -536 -522 0 0 
316 170 401 513 26 33 336 -512 -537 -520 0 0 
317 170 409 511 23 44 338 -510 -539 -520 0 0 
318 173 405 511 23 40 344 -509 -539 -521 0 0 
319 173 418 509 22 36 358 -507 -540 -521 0 0 
320 176 419 508 17 36 356 -506 -541 -521 0 0 
321 179 417 509 12 35 349 -506 -542 -523 0 0 
322 180 415 506 8 33 343 -504 -543 -524 0 0 
323 181 421 506 8 34 340 -503 -544 -526 0 0 
324 181 424 506 11 35 340 -503 -546 -527 0 0 
325 188 430 503 14 36 337 -501 -547 -527 0 0 
326 185 433 502 23 28 342 -499 -548 -528 0 0 
327 191 434 499 29 24 345 -498 -549 -527 0 0 
328 194 437 497 34 18 351 -497 -550 -525 0 0 
329 194 438 496 38 9 342 -496 -551 -523 0 0 
330 199 434 493 39 10 337 -494 -553 -520 0 0 
331 202 444 489 39 11 329 -493 -553 -518 0 0 
332 203 442 487 39 19 324 -491 -555 -517 0 0 
333 211 444 482 40 18 324 -488 -557 -515 0 0 
334 214 448 478 41 17 318 -486 -560 -514 0 0 
335 222 444 473 38 8 295 -484 -562 -513 0 0 
336 225 462 469 39 1 298 -481 -565 -511 0 0 
337 233 457 463 37 1 288 -478 -568 -509 0 0 
338 242 460 458 38 5 275 -474 -571 -507 0 0 
339 249 470 450 41 10 272 -469 -575 -505 0 0 
340 255 474 442 39 14 259 -467 -579 -505 0 0 
341 267 484 435 38 19 246 -462 -582 -505 0 0 
342 271 485 423 47 31 248 -457 -586 -504 0 0 
343 282 495 413 49 35 230 -454 -590 -505 0 0 
344 288 495 402 55 39 213 -449 -596 -505 0 0 
345 306 499 390 71 42 191 -444 -602 -504 0 0 
346 311 513 372 76 38 146 -439 -608 -503 0 0 
347 322 520 354 83 39 136 -432 -615 -502 0 0 
348 337 532 336 96 42 122 -425 -622 -499 0 0 
349 350 533 317 100 41 107 -420 -629 -496 0 0 
350 362 546 292 106 43 99 -414 -635 -494 0 0 
351 377 556 267 115 50 83 -408 -642 -492 0 0 
352 394 557 239 120 53 67 -402 -649 -489 0 0 
353 407 560 213 126 57 66 -397 -655 -486 0 0 
354 420 571 179 130 61 58 -394 -661 -483 0 0 
355 433 572 145 128 69 42 -390 -666 -480 0 0 
356 449 570 111 134 69 35 -389 -670 -477 0 0 
357 460 561 77 141 73 44 -388 -672 -475 0 0 
358 473 560 40 135 78 28 -388 -676 -472 0 0 
359 482 558 4 136 79 53 -389 -676 -471 0 0 
360 489 557 -33 130 78 49 -389 -676 -469 0 0 
361 496 555 -68 123 78 49 -389 -673 -468 0 0 
362 501 533 -102 119 79 43 -388 -671 -467 0 0 
363 501 534 -135 118 79 39 -387 -668 -467 0 0 
364 508 523 -169 116 79 44 -386 -667 -466 0 0 
365 505 510 -200 115 80 44 -385 -665 -466 0 0 
366 507 495 -230 114 80 47 -385 -663 -465 0 0 
367 503 485 -259 112 80 47 -384 -660 -465 0 0 
368 507 473 -288 111 81 50 -383 -658 -463 0 0 
369 504 457 -315 110 81 50 -382 -656 -463 0 0 
370 504 440 -342 109 82 51 -380 -654 -463 0 0 
371 501 429 -370 107 82 54 -379 -650 -462 0 0 
372 500 413 -399 106 83 54 -377 -649 -461 0 0 
373 494 390 -426 105 83 54 -376 -646 -461 0 0 
374 497 365 -454 104 83 48 -375 -644 -496 0 0 
375 489 343 -478 103 83 47 -373 -642 -461 0 0 
