% Mike Stanley's IMU Data Logger
% Date & Time   Monday 14 February 2011  -  12:32:29 PM
% MagX, AccX and GyroX values are centered at 0 LSB
% Accelerometer Range = +/- 6g
% Gyroscope     Range = +/- 2000 degrees/second
% Magnetometer  Range = +/- 200uT
% Recorder      Michael Stanley
% Comments      Drop sensor from one hand to another.
% SampleNumber MagX MagY MagZ AccX AccY AccZ GyroR GyroP GyroY LButton RButton
1 -107 241 623 32 18 358 -516 -531 -529 0 0 
2 -108 243 623 32 16 356 -515 -531 -529 0 0 
3 -108 243 624 32 11 346 -513 -531 -529 0 0 
4 -108 243 624 33 7 341 -512 -533 -530 0 0 
5 -107 250 624 32 2 340 -512 -535 -530 0 0 
6 -107 242 624 30 -7 349 -512 -534 -529 0 0 
7 -109 248 622 30 -7 353 -512 -534 -528 0 0 
8 -109 241 625 30 -5 356 -515 -533 -528 0 0 
9 -102 249 625 30 -3 359 -516 -532 -528 0 0 
10 -109 242 623 31 3 357 -516 -531 -528 0 0 
11 -108 245 625 32 8 353 -517 -531 -528 0 0 
12 -106 238 622 32 9 349 -517 -531 -530 0 0 
13 -112 242 623 30 13 343 -517 -532 -530 0 0 
14 -109 250 625 30 16 339 -519 -533 -530 0 0 
15 -110 240 626 29 16 335 -519 -534 -531 0 0 
16 -107 245 624 28 11 327 -518 -536 -531 0 0 
17 -109 248 624 27 9 329 -514 -538 -531 0 0 
18 -107 248 624 25 10 335 -512 -539 -530 0 0 
19 -103 245 623 23 14 353 -512 -539 -530 0 0 
20 -102 249 625 22 14 360 -513 -538 -530 0 0 
21 -107 247 624 21 13 365 -513 -536 -530 0 0 
22 -108 246 623 20 13 368 -513 -535 -529 0 0 
23 -107 246 624 22 15 365 -514 -534 -530 0 0 
24 -108 246 622 26 14 362 -516 -533 -531 0 0 
25 -107 250 621 28 10 361 -517 -533 -531 0 0 
26 -108 247 622 26 6 369 -518 -533 -532 0 0 
27 -108 247 623 23 2 375 -516 -532 -532 0 0 
28 -109 250 625 20 0 378 -517 -530 -532 0 0 
29 -111 248 624 19 2 368 -519 -530 -532 0 0 
30 -108 247 622 20 2 359 -518 -531 -532 0 0 
31 -111 247 623 21 1 350 -517 -531 -532 0 0 
32 -110 242 623 24 -1 341 -516 -532 -531 0 0 
33 -111 249 622 23 -2 343 -515 -533 -530 0 0 
34 -111 247 623 23 -1 348 -514 -534 -530 0 0 
35 -111 242 623 23 4 356 -513 -533 -530 0 0 
36 -113 246 624 21 3 359 -513 -533 -530 0 0 
37 -111 249 623 19 2 360 -512 -531 -529 0 0 
38 -107 247 621 22 4 356 -514 -532 -529 0 0 
39 -111 246 624 22 1 342 -515 -532 -529 0 0 
40 -113 249 621 24 -4 337 -515 -532 -528 0 0 
41 -111 251 623 26 -6 334 -514 -533 -528 0 0 
42 -113 246 623 27 -7 335 -515 -534 -528 0 0 
43 -114 246 621 26 -6 341 -516 -534 -528 0 0 
44 -113 250 624 26 -5 347 -517 -533 -528 0 0 
45 -113 255 624 27 -2 353 -518 -533 -527 0 0 
46 -113 243 623 28 2 353 -515 -533 -527 0 0 
47 -112 252 623 27 5 353 -514 -533 -527 0 0 
48 -113 242 624 29 8 348 -513 -534 -527 0 0 
49 -111 249 621 29 8 346 -514 -534 -527 0 0 
50 -114 247 620 30 8 346 -515 -533 -527 0 0 
51 -109 250 621 33 16 347 -516 -534 -527 0 0 
52 -109 247 623 32 18 348 -517 -534 -528 0 0 
53 -113 248 622 31 16 348 -518 -534 -528 0 0 
54 -113 244 623 30 12 350 -518 -534 -528 0 0 
55 -113 249 622 30 8 354 -517 -534 -528 0 0 
56 -110 248 622 30 9 357 -517 -534 -528 0 0 
57 -111 253 622 30 11 359 -518 -534 -528 0 0 
58 -114 251 622 34 14 359 -519 -533 -528 0 0 
59 -110 253 624 37 15 357 -519 -533 -528 0 0 
60 -113 251 621 39 15 354 -517 -533 -529 0 0 
61 -114 244 623 38 12 358 -515 -533 -529 0 0 
62 -113 245 622 36 10 362 -515 -533 -529 0 0 
63 -114 249 625 34 8 365 -513 -533 -529 0 0 
64 -110 250 621 34 10 363 -514 -532 -529 0 0 
65 -114 250 623 33 11 363 -513 -532 -530 0 0 
66 -114 252 622 32 10 361 -514 -531 -531 0 0 
67 -112 249 623 32 2 352 -515 -531 -530 0 0 
68 -113 248 620 33 -2 349 -516 -531 -531 0 0 
69 -112 247 620 35 -4 350 -515 -533 -530 0 0 
70 -111 249 622 34 -2 357 -515 -533 -530 0 0 
71 -116 241 622 29 2 375 -515 -531 -530 0 0 
72 -115 249 623 28 5 377 -516 -529 -530 0 0 
73 -113 248 623 28 10 376 -517 -528 -531 0 0 
74 -116 247 622 29 17 355 -518 -528 -532 0 0 
75 -119 245 621 27 16 345 -516 -528 -532 0 0 
76 -119 245 623 28 17 334 -516 -530 -532 0 0 
77 -119 252 622 28 13 317 -514 -533 -532 0 0 
78 -120 251 621 27 10 317 -513 -535 -531 0 0 
79 -118 254 619 27 9 322 -512 -537 -531 0 0 
80 -120 252 619 23 6 345 -512 -537 -531 0 0 
81 -114 255 624 19 6 361 -512 -536 -530 0 0 
82 -117 251 623 16 7 373 -514 -533 -531 0 0 
83 -121 246 621 15 12 384 -516 -531 -531 0 0 
84 -119 244 621 16 15 382 -518 -528 -532 0 0 
85 -120 246 620 18 18 376 -518 -527 -533 0 0 
86 -124 242 622 21 20 364 -518 -528 -533 0 0 
87 -122 240 620 24 18 346 -517 -530 -534 0 0 
88 -123 246 620 22 16 343 -515 -532 -535 0 0 
89 -124 249 620 19 13 345 -514 -533 -534 0 0 
90 -124 249 620 12 9 351 -514 -533 -534 0 0 
91 -122 251 621 9 8 352 -515 -533 -534 0 0 
92 -119 246 623 8 7 351 -516 -534 -534 0 0 
93 -122 248 620 9 7 345 -515 -534 -532 0 0 
94 -124 253 623 13 9 343 -514 -535 -533 0 0 
95 -125 250 623 13 9 345 -515 -537 -532 0 0 
96 -124 249 620 7 9 359 -514 -535 -533 0 0 
97 -124 246 622 6 11 365 -514 -534 -532 0 0 
98 -124 255 619 5 11 369 -514 -532 -533 0 0 
99 -126 248 622 4 11 369 -514 -530 -533 0 0 
100 -125 246 621 5 11 363 -516 -530 -533 0 0 
101 -126 245 623 6 11 353 -517 -531 -533 0 0 
102 -127 254 621 9 10 344 -517 -532 -533 0 0 
103 -129 248 619 11 5 338 -516 -535 -532 0 0 
104 -126 243 622 11 5 343 -514 -536 -531 0 0 
105 -128 238 621 9 8 354 -513 -535 -531 0 0 
106 -128 247 620 4 9 374 -513 -534 -531 0 0 
107 -127 250 620 2 7 376 -515 -531 -531 0 0 
108 -123 251 620 1 5 372 -515 -531 -532 0 0 
109 -129 251 620 3 7 360 -515 -530 -531 0 0 
110 -127 251 621 4 7 354 -515 -530 -531 0 0 
111 -131 245 621 4 6 349 -516 -530 -531 0 0 
112 -126 250 619 3 6 344 -517 -532 -531 0 0 
113 -131 244 618 1 5 346 -518 -532 -531 0 0 
114 -131 247 622 0 5 346 -518 -532 -531 0 0 
115 -130 248 622 0 7 343 -517 -532 -530 0 0 
116 -129 246 618 1 5 338 -517 -533 -530 0 0 
117 -132 248 620 4 3 333 -516 -535 -531 0 0 
118 -130 250 620 6 1 331 -515 -536 -530 0 0 
119 -131 244 620 3 -3 344 -515 -535 -530 0 0 
120 -130 249 622 1 -2 354 -515 -534 -530 0 0 
121 -129 251 620 3 1 359 -517 -534 -529 0 0 
122 -128 245 620 3 5 365 -518 -532 -529 0 0 
123 -132 242 620 3 5 365 -518 -531 -529 0 0 
124 -133 243 620 5 5 360 -518 -531 -529 0 0 
125 -131 250 620 7 2 343 -518 -532 -530 0 0 
126 -132 248 620 9 1 335 -516 -534 -529 0 0 
127 -132 248 620 9 1 331 -514 -536 -529 0 0 
128 -129 246 620 7 -5 335 -512 -537 -528 0 0 
129 -128 250 621 8 -7 343 -514 -538 -527 0 0 
130 -131 246 623 9 -8 352 -515 -538 -527 0 0 
131 -126 242 621 10 -4 371 -517 -536 -526 0 0 
132 -130 245 619 10 0 377 -516 -534 -526 0 0 
133 -129 247 619 10 5 380 -517 -533 -526 0 0 
134 -132 244 621 11 9 379 -517 -532 -527 0 0 
135 -131 248 620 15 17 365 -518 -532 -528 0 0 
136 -133 247 621 16 17 356 -518 -532 -529 0 0 
137 -130 246 622 16 17 351 -519 -533 -529 0 0 
138 -132 240 619 16 12 342 -517 -535 -529 0 0 
139 -131 233 622 15 7 344 -517 -535 -529 0 0 
140 -132 245 623 14 4 350 -516 -536 -528 0 0 
141 -128 242 621 12 5 366 -516 -535 -527 0 0 
142 -132 251 621 11 8 370 -515 -534 -526 0 0 
143 -130 245 621 12 11 370 -515 -533 -526 0 0 
144 -126 247 621 16 16 358 -515 -532 -527 0 0 
145 -129 245 621 16 17 353 -515 -533 -528 0 0 
146 -132 243 620 16 16 348 -515 -533 -529 0 0 
147 -130 245 621 17 10 340 -514 -533 -529 0 0 
148 -129 250 622 17 7 337 -516 -535 -530 0 0 
149 -126 249 620 17 5 338 -515 -536 -530 0 0 
150 -131 246 621 17 5 344 -514 -536 -529 0 0 
151 -127 249 621 15 11 360 -515 -536 -528 0 0 
152 -130 248 622 14 13 366 -515 -535 -529 0 0 
153 -126 242 623 13 14 369 -515 -534 -529 0 0 
154 -129 250 620 13 11 365 -515 -533 -529 0 0 
155 -126 252 622 14 11 358 -515 -533 -529 0 0 
156 -128 250 622 16 13 349 -514 -533 -528 0 0 
157 -128 247 621 20 12 337 -514 -535 -529 0 0 
158 -130 247 620 20 9 336 -513 -536 -529 0 0 
159 -130 253 618 20 6 341 -512 -536 -529 0 0 
160 -128 247 620 14 6 363 -512 -536 -529 0 0 
161 -129 252 621 13 7 370 -513 -534 -528 0 0 
162 -130 252 622 12 7 373 -515 -533 -528 0 0 
163 -129 250 622 17 10 360 -517 -532 -528 0 0 
164 -130 250 619 19 14 352 -519 -532 -529 0 0 
165 -132 251 621 18 16 347 -520 -532 -530 0 0 
166 -130 251 620 17 17 344 -519 -532 -531 0 0 
167 -131 246 621 17 16 339 -517 -534 -531 0 0 
168 -131 250 620 16 14 340 -517 -534 -531 0 0 
169 -132 251 620 15 13 340 -517 -535 -531 0 0 
170 -132 249 622 15 9 340 -516 -537 -531 0 0 
171 -131 248 622 15 6 340 -515 -537 -530 0 0 
172 -130 250 619 14 5 343 -514 -536 -529 0 0 
173 -131 250 622 14 3 351 -513 -536 -529 0 0 
174 -128 246 620 13 2 355 -514 -536 -528 0 0 
175 -131 251 620 12 4 360 -516 -534 -528 0 0 
176 -130 249 622 13 9 363 -517 -533 -527 0 0 
177 -127 250 621 15 13 362 -518 -532 -527 0 0 
178 -130 245 622 17 19 359 -518 -532 -529 0 0 
179 -132 243 623 14 23 358 -520 -532 -530 0 0 
180 -132 246 622 11 19 351 -521 -532 -531 0 0 
181 -130 249 621 12 14 344 -520 -533 -531 0 0 
182 -131 245 623 12 12 338 -520 -534 -532 0 0 
183 -131 247 622 10 10 337 -519 -536 -532 0 0 
184 -130 248 620 10 8 335 -517 -538 -531 0 0 
185 -130 248 620 8 4 337 -515 -538 -531 0 0 
186 -128 253 621 0 -2 349 -513 -539 -531 0 0 
187 -128 244 621 -2 -7 352 -511 -538 -529 0 0 
188 -131 245 622 -1 -9 352 -511 -537 -527 0 0 
189 -127 252 621 5 -5 344 -513 -538 -527 0 0 
190 -125 245 621 11 -3 340 -516 -538 -527 0 0 
191 -128 254 621 13 -3 343 -516 -538 -528 0 0 
192 -122 256 622 13 7 366 -516 -537 -527 0 0 
193 -121 253 620 9 10 380 -516 -535 -526 0 0 
194 -127 249 622 10 10 389 -515 -533 -526 0 0 
195 -127 242 621 16 13 389 -515 -532 -527 0 0 
196 -126 241 623 16 9 377 -517 -531 -527 0 0 
197 -130 241 621 17 3 370 -519 -530 -528 0 0 
198 -129 252 622 17 -1 364 -518 -530 -527 0 0 
199 -127 249 620 23 -1 351 -518 -532 -526 0 0 
200 -130 249 622 24 4 349 -519 -534 -527 0 0 
201 -124 253 622 25 6 352 -518 -533 -527 0 0 
202 -128 245 621 23 10 363 -518 -534 -527 0 0 
203 -124 248 624 21 11 364 -519 -532 -527 0 0 
204 -128 252 621 22 12 358 -517 -533 -527 0 0 
205 -128 243 620 28 15 344 -516 -536 -528 0 0 
206 -128 244 620 28 18 343 -515 -537 -529 0 0 
207 -129 244 622 25 18 348 -514 -536 -529 0 0 
208 -127 243 622 23 16 359 -515 -535 -528 0 0 
209 -128 248 621 24 13 359 -517 -535 -529 0 0 
210 -127 251 624 25 8 360 -518 -534 -528 0 0 
211 -126 253 622 26 5 363 -518 -534 -527 0 0 
212 -124 253 621 26 14 367 -518 -533 -527 0 0 
213 -126 251 621 27 20 367 -517 -533 -527 0 0 
214 -127 247 622 28 26 366 -516 -533 -527 0 0 
215 -128 250 622 27 31 360 -517 -532 -529 0 0 
216 -126 251 621 27 28 352 -514 -533 -531 0 0 
217 -126 250 622 28 22 344 -511 -536 -531 0 0 
218 -128 253 620 23 16 343 -509 -536 -531 0 0 
219 -124 255 623 19 12 348 -509 -537 -531 0 0 
220 -123 255 621 16 6 353 -510 -536 -531 0 0 
221 -125 258 621 10 -4 356 -511 -536 -531 0 0 
222 -127 256 620 8 -4 357 -513 -534 -531 0 0 
223 -128 252 621 10 0 353 -517 -533 -530 0 0 
224 -123 249 621 12 0 344 -518 -533 -530 0 0 
225 -126 243 622 8 -3 346 -521 -531 -530 0 0 
226 -127 238 622 5 -8 356 -525 -528 -530 0 0 
227 -126 241 623 0 -11 372 -531 -523 -530 0 0 
228 -133 233 624 -21 -17 433 -540 -513 -533 0 0 
229 -138 228 629 -27 -28 458 -550 -500 -537 0 0 
230 -144 211 628 -36 -25 459 -562 -491 -541 0 0 
231 -158 216 620 -81 30 418 -572 -470 -548 0 0 
232 -179 260 591 -150 70 319 -578 -382 -546 0 0 
233 -205 320 546 -90 159 47 -322 -314 -525 0 0 
234 -239 384 486 5 72 -31 -109 -284 -535 0 0 
235 -266 443 416 21 53 -19 14 -288 -559 0 0 
236 -294 490 345 32 37 -10 76 -315 -585 0 0 
237 -309 524 279 49 6 -2 88 -380 -610 0 0 
238 -328 536 224 60 -10 -4 61 -451 -627 0 0 
239 -337 538 186 62 -26 -7 -5 -521 -636 0 0 
240 -348 538 167 60 -47 -9 -95 -583 -636 0 0 
241 -352 538 159 58 -53 -9 -198 -631 -628 0 0 
242 -357 530 164 54 -56 -9 -303 -662 -616 0 0 
243 -362 522 175 48 -55 -8 -400 -678 -606 0 0 
244 -365 516 190 35 -41 -6 -475 -681 -604 0 0 
245 -371 509 206 28 -31 -6 -526 -676 -609 0 0 
246 -374 493 216 22 -22 -7 -554 -666 -618 0 0 
247 -381 477 226 16 -7 -11 -558 -659 -628 0 0 
248 -391 466 234 16 -2 -14 -546 -655 -639 0 0 
249 -397 454 235 17 2 -16 -523 -656 -648 0 0 
250 -404 440 238 23 6 -21 -491 -664 -654 0 0 
251 -410 431 238 25 7 -21 -455 -674 -657 0 0 
252 -414 425 237 28 8 -21 -417 -687 -656 0 0 
253 -421 415 234 31 8 -16 -382 -703 -654 0 0 
254 -420 408 233 32 8 -13 -351 -719 -651 0 0 
255 -427 410 234 32 8 -9 -327 -734 -648 0 0 
256 -428 414 233 32 7 -2 -310 -747 -645 0 0 
257 -432 400 236 31 6 2 -301 -759 -642 0 0 
258 -434 394 242 31 5 7 -296 -768 -638 0 0 
259 -435 393 248 30 5 9 -297 -774 -634 0 0 
260 -436 384 252 28 5 13 -300 -779 -630 0 0 
261 -433 385 263 27 4 15 -306 -781 -629 0 0 
262 -432 375 273 26 4 17 -314 -781 -625 0 0 
263 -437 373 282 25 4 21 -321 -778 -623 0 0 
264 -435 376 301 23 4 22 -328 -779 -621 0 0 
265 -420 394 331 -10 10 21 -336 -834 -609 0 0 
266 -364 440 377 -121 92 16 -354 -1009 -501 0 0 
267 -242 520 394 -68 184 38 -365 -1276 -248 0 0 
268 -71 593 325 15 301 113 -302 -1397 130 0 0 
269 -134 636 189 1150 1562 981 -124 -924 475 0 0 
270 -219 627 34 2048 2048 1879 493 -1254 -1013 0 0 
271 -377 491 -108 2048 2048 1242 771 -1305 -1246 0 0 
272 -514 252 -130 -2047 -862 447 941 -1082 -1804 0 0 
273 -583 46 -11 36 309 -640 1319 -1471 -2010 0 0 
274 -587 -80 80 646 369 411 1285 -1521 -1763 0 0 
275 -556 -211 127 297 176 553 756 -998 -1408 0 0 
276 -478 -375 112 516 -500 149 11 -900 -1400 0 0 
277 -394 -471 34 1844 -450 202 -606 -687 -1685 0 0 
278 -367 -478 -75 2048 -150 95 -1037 -527 -1602 0 0 
279 -379 -433 -197 543 40 89 -1303 -517 -943 0 0 
280 -393 -334 -314 -377 -72 126 -1515 -510 -494 0 0 
281 -397 -216 -414 -59 -26 181 -1715 -469 -353 0 0 
282 -376 -63 -481 285 38 219 -1861 -353 -420 0 0 
283 -347 91 -502 -54 109 212 -1924 -249 -518 0 0 
284 -312 245 -479 -247 143 194 -1912 -206 -544 0 0 
285 -287 368 -429 9 140 95 -1834 -236 -568 0 0 
286 -266 458 -360 119 146 42 -1701 -321 -577 0 0 
287 -251 532 -299 70 157 -9 -1534 -384 -534 0 0 
288 -225 579 -254 -142 156 -98 -1349 -377 -460 0 0 
289 -195 601 -236 -177 160 -132 -1155 -381 -405 0 0 
290 -163 620 -262 -188 228 -174 -950 -383 -364 0 0 
291 -156 593 -295 -288 547 -273 -635 -473 -334 0 0 
292 -164 574 -320 -84 926 -216 -345 -522 -446 0 0 
293 -181 562 -327 -151 775 -211 -264 -527 -586 0 0 
294 -200 558 -320 -187 526 -184 -356 -553 -650 0 0 
295 -219 552 -302 -223 257 -172 -488 -591 -673 0 0 
296 -239 558 -275 -243 208 -167 -577 -664 -659 0 0 
297 -247 573 -242 -113 204 -149 -626 -712 -610 0 0 
298 -252 585 -212 16 492 -86 -668 -753 -538 0 0 
299 -274 579 -190 40 751 -45 -689 -760 -480 0 0 
300 -296 574 -179 73 903 46 -620 -742 -540 0 0 
301 -320 559 -167 104 675 214 -546 -696 -650 0 0 
302 -332 556 -162 72 529 228 -515 -645 -662 0 0 
303 -344 543 -156 27 435 247 -518 -603 -638 0 0 
304 -357 538 -159 -16 337 209 -516 -568 -629 0 0 
305 -359 536 -165 -42 317 192 -499 -540 -598 0 0 
306 -361 535 -175 -63 325 186 -484 -513 -573 0 0 
307 -362 523 -187 -64 372 184 -478 -484 -554 0 0 
308 -361 525 -198 -36 455 134 -473 -462 -550 0 0 
309 -355 518 -210 -43 439 86 -466 -448 -555 0 0 
310 -357 509 -219 -46 371 21 -468 -450 -568 0 0 
311 -358 508 -225 -21 320 -64 -485 -452 -556 0 0 
312 -359 504 -230 -3 307 -104 -498 -464 -562 0 0 
313 -357 505 -230 6 289 -131 -513 -482 -567 0 0 
314 -357 501 -229 11 277 -164 -528 -505 -566 0 0 
315 -364 502 -225 18 288 -171 -538 -536 -556 0 0 
316 -364 504 -217 11 314 -167 -539 -564 -544 0 0 
317 -369 498 -211 17 404 -106 -540 -584 -540 0 0 
318 -374 496 -201 14 447 -60 -542 -596 -545 0 0 
319 -383 496 -194 12 457 -10 -540 -597 -561 0 0 
320 -389 489 -187 0 380 69 -538 -589 -574 0 0 
321 -395 491 -180 -8 344 91 -539 -578 -575 0 0 
322 -400 492 -179 -16 329 106 -539 -564 -566 0 0 
323 -400 487 -177 -25 324 116 -531 -550 -557 0 0 
324 -402 483 -177 -40 312 122 -523 -536 -550 0 0 
325 -400 485 -180 -38 321 115 -521 -524 -541 0 0 
326 -400 484 -185 -34 349 102 -513 -516 -533 0 0 
327 -400 477 -187 -34 392 62 -506 -514 -535 0 0 
328 -400 479 -185 -38 384 36 -505 -517 -541 0 0 
329 -398 478 -189 -39 360 10 -509 -525 -546 0 0 
330 -398 477 -186 -40 320 -24 -510 -534 -545 0 0 
331 -403 476 -185 -43 323 -23 -513 -543 -542 0 0 
332 -407 471 -184 -48 330 -12 -516 -548 -542 0 0 
333 -404 467 -180 -57 330 25 -519 -549 -542 0 0 
334 -409 469 -183 -59 330 44 -521 -545 -543 0 0 
335 -411 471 -179 -60 328 57 -523 -538 -544 0 0 
336 -412 471 -181 -57 297 56 -523 -533 -544 0 0 
337 -412 469 -180 -60 285 47 -520 -532 -540 0 0 
338 -414 471 -180 -64 290 37 -519 -533 -535 0 0 
339 -410 476 -181 -68 311 32 -519 -534 -529 0 0 
340 -413 468 -179 -74 356 31 -518 -536 -530 0 0 
341 -412 469 -178 -76 358 30 -519 -538 -534 0 0 
342 -411 470 -178 -77 350 28 -519 -541 -536 0 0 
343 -414 466 -175 -83 343 34 -518 -542 -536 0 0 
344 -416 465 -177 -82 341 42 -520 -542 -537 0 0 
345 -416 466 -175 -82 334 48 -519 -541 -539 0 0 
346 -416 456 -174 -83 302 53 -519 -539 -538 0 0 
347 -417 462 -174 -79 295 54 -520 -537 -534 0 0 
348 -417 462 -171 -77 303 52 -520 -536 -530 0 0 
349 -418 469 -169 -79 327 49 -519 -536 -529 0 0 
350 -416 473 -169 -80 333 48 -522 -537 -529 0 0 
351 -418 468 -169 -79 337 48 -523 -537 -530 0 0 
352 -418 468 -167 -76 346 52 -522 -536 -531 0 0 
353 -416 471 -166 -77 351 54 -521 -536 -531 0 0 
354 -419 471 -167 -79 347 55 -521 -535 -534 0 0 
355 -420 467 -167 -80 338 53 -522 -533 -536 0 0 
356 -422 461 -167 -77 316 46 -522 -532 -537 0 0 
357 -419 460 -166 -75 306 40 -523 -532 -537 0 0 
358 -420 463 -167 -71 297 31 -523 -531 -535 0 0 
359 -421 458 -165 -64 298 14 -521 -536 -531 0 0 
360 -422 463 -160 -68 310 12 -521 -543 -528 0 0 
361 -423 472 -160 -74 321 15 -524 -549 -530 0 0 
362 -421 466 -154 -80 336 36 -530 -553 -530 0 0 
363 -425 470 -152 -79 348 52 -532 -553 -530 0 0 
364 -422 466 -151 -79 360 69 -532 -551 -531 0 0 
365 -425 472 -145 -82 356 92 -531 -548 -534 0 0 
366 -425 468 -146 -85 339 96 -529 -545 -538 0 0 
367 -428 472 -145 -89 319 98 -526 -541 -539 0 0 
368 -431 465 -143 -91 293 95 -525 -536 -535 0 0 
369 -429 469 -144 -90 295 91 -525 -533 -530 0 0 
370 -424 468 -142 -88 306 87 -524 -531 -526 0 0 
371 -430 468 -142 -84 321 81 -523 -532 -524 0 0 
372 -429 469 -141 -80 347 66 -523 -535 -525 0 0 
373 -429 469 -139 -79 344 61 -524 -541 -529 0 0 
374 -432 478 -134 -77 333 58 -528 -545 -531 0 0 
375 -429 479 -132 -70 313 60 -530 -551 -529 0 0 
376 -428 473 -127 -64 314 67 -532 -556 -525 0 0 
377 -430 479 -126 -56 324 76 -532 -557 -522 0 0 
378 -430 479 -126 -56 324 76 -532 -557 -522 0 0 
379 -430 478 -122 -34 358 90 -530 -557 -520 0 0 
380 -427 478 -117 -28 372 95 -524 -560 -524 0 0 
381 -433 479 -113 -26 372 97 -521 -563 -532 0 0 
382 -432 471 -108 -23 348 103 -526 -568 -538 0 0 
383 -433 481 -98 -25 344 110 -533 -573 -543 0 0 
384 -440 474 -93 -24 341 122 -538 -574 -547 0 0 
385 -445 471 -87 -8 352 151 -542 -571 -549 0 0 
386 -449 471 -84 -3 367 160 -542 -565 -551 0 0 
387 -451 475 -79 -3 375 160 -534 -561 -555 0 0 
388 -458 464 -75 -5 370 153 -527 -559 -562 0 0 
389 -460 469 -74 -14 341 123 -523 -559 -566 0 0 
390 -466 461 -69 -18 329 106 -523 -560 -569 0 0 
391 -468 460 -64 -20 317 90 -522 -565 -571 0 0 
392 -477 454 -56 -31 288 64 -522 -573 -572 0 0 
393 -483 448 -47 -44 276 60 -527 -583 -573 0 0 
394 -486 440 -34 -59 268 67 -536 -595 -572 0 0 
395 -491 430 -27 -80 275 118 -547 -599 -572 0 0 
396 -496 429 -14 -80 289 151 -557 -598 -573 0 0 
397 -503 424 -4 -76 303 177 -560 -590 -574 0 0 
398 -506 425 3 -70 309 192 -556 -580 -575 0 0 
399 -512 420 8 -74 303 191 -544 -572 -574 0 0 
400 -516 416 12 -80 291 185 -536 -566 -571 0 0 
401 -518 410 16 -97 278 172 -529 -562 -567 0 0 
402 -523 410 18 -101 282 145 -525 -559 -563 0 0 
403 -526 406 22 -101 288 133 -522 -558 -562 0 0 
404 -529 403 25 -101 293 119 -522 -558 -562 0 0 
405 -535 393 33 -116 281 80 -524 -563 -565 0 0 
406 -538 391 41 -128 268 62 -526 -572 -566 0 0 
407 -540 388 51 -142 258 53 -531 -585 -565 0 0 
408 -542 384 60 -164 247 61 -537 -596 -563 0 0 
409 -547 384 72 -166 248 83 -542 -600 -560 0 0 
410 -545 382 83 -165 256 113 -547 -601 -559 0 0 
411 -548 373 93 -166 276 167 -547 -597 -559 0 0 
412 -554 377 100 -164 287 187 -546 -588 -557 0 0 
413 -557 377 106 -157 299 197 -542 -576 -555 0 0 
414 -559 372 106 -145 317 200 -531 -563 -553 0 0 
415 -558 368 109 -141 320 186 -518 -552 -552 0 0 
416 -560 364 107 -139 313 161 -505 -547 -551 0 0 
417 -562 370 110 -139 301 131 -497 -547 -548 0 0 
418 -560 371 111 -145 304 81 -495 -555 -546 0 0 
419 -562 358 119 -151 309 67 -498 -565 -546 0 0 
420 -567 354 125 -156 311 59 -508 -576 -548 0 0 
421 -568 361 133 -163 315 63 -516 -587 -553 0 0 
422 -568 353 144 -162 319 78 -523 -593 -555 0 0 
423 -572 346 149 -159 324 98 -523 -595 -556 0 0 
424 -574 343 157 -152 336 140 -521 -593 -559 0 0 
425 -574 340 166 -149 333 152 -517 -587 -562 0 0 
426 -575 341 171 -147 328 157 -512 -582 -563 0 0 
427 -575 328 175 -145 315 147 -506 -579 -564 0 0 
428 -578 334 180 -146 307 133 -499 -578 -563 0 0 
429 -579 330 186 -147 301 116 -494 -582 -560 0 0 
430 -576 316 193 -152 297 93 -493 -589 -560 0 0 
431 -581 314 202 -158 294 90 -495 -598 -562 0 0 
432 -581 315 211 -165 285 96 -500 -605 -564 0 0 
433 -580 313 224 -173 259 109 -506 -608 -567 0 0 
434 -578 307 233 -175 247 145 -513 -608 -569 0 0 
435 -579 300 243 -179 234 157 -521 -604 -572 0 0 
436 -580 280 253 -182 223 164 -529 -599 -572 0 0 
437 -581 281 262 -189 216 177 -533 -594 -570 0 0 
438 -577 281 269 -190 218 182 -535 -589 -567 0 0 
439 -577 274 277 -191 220 187 -535 -583 -564 0 0 
440 -577 270 285 -197 219 193 -534 -579 -562 0 0 
441 -577 269 291 -201 215 194 -532 -577 -560 0 0 
442 -579 263 297 -205 212 197 -534 -575 -555 0 0 
443 -572 263 299 -205 215 210 -538 -573 -552 0 0 
444 -568 276 300 -207 128 255 -536 -561 -545 0 0 
445 -568 282 297 -239 -127 356 -425 -534 -487 0 0 
446 -565 284 300 -177 333 297 -488 -511 -466 0 0 
447 -568 286 295 -167 356 255 -565 -512 -490 0 0 
448 -568 273 295 -158 444 302 -575 -499 -510 0 0 
449 -568 273 295 -157 417 243 -558 -497 -530 0 0 
450 -572 276 298 -138 291 90 -563 -532 -526 0 0 
451 -569 280 298 -133 263 37 -536 -546 -525 0 0 
452 -569 274 302 -141 240 95 -528 -553 -528 0 0 
453 -565 277 308 -124 282 156 -528 -556 -531 0 0 
454 -565 271 308 -124 294 165 -524 -558 -535 0 0 
455 -568 267 310 -124 310 168 -513 -559 -540 0 0 
456 -561 275 311 -119 361 162 -492 -561 -538 0 0 
457 -565 275 311 -139 345 169 -470 -559 -538 0 0 
458 -563 280 312 -155 336 176 -460 -558 -543 0 0 
459 -562 276 317 -198 339 168 -463 -570 -548 0 0 
460 -558 282 322 -216 346 161 -469 -584 -552 0 0 
461 -556 276 330 -243 355 153 -476 -593 -554 0 0 
462 -552 267 340 -296 371 107 -483 -609 -552 0 0 
463 -548 269 352 -290 385 99 -508 -600 -532 0 0 
464 -540 264 366 -256 317 92 -532 -612 -534 0 0 
465 -537 259 377 -238 265 82 -552 -625 -552 0 0 
466 -532 240 386 -230 322 126 -554 -619 -571 0 0 
467 -531 228 392 -235 336 119 -552 -584 -584 0 0 
468 -529 226 395 -232 355 89 -563 -541 -574 0 0 
469 -527 218 401 -193 390 130 -576 -557 -540 0 0 
470 -521 217 413 -178 345 181 -582 -577 -532 0 0 
471 -513 218 422 -141 352 168 -590 -583 -517 0 0 
472 -507 222 431 -83 308 187 -600 -588 -495 0 0 
473 -499 218 442 -69 275 191 -604 -594 -485 0 0 
474 -490 210 452 -72 251 187 -601 -596 -484 0 0 
475 -484 203 461 -69 216 194 -600 -593 -490 0 0 
476 -477 198 471 -56 211 202 -606 -584 -494 0 0 
477 -471 195 480 -43 210 214 -620 -573 -494 0 0 
478 -467 186 483 -19 196 260 -634 -563 -492 0 0 
479 -459 181 491 0 186 289 -645 -555 -491 0 0 
480 -457 162 497 22 165 315 -644 -556 -493 0 0 
481 -455 158 496 33 148 316 -639 -545 -499 0 0 
482 -456 156 496 20 174 319 -639 -519 -492 0 0 
483 -455 142 496 6 193 316 -656 -493 -466 0 0 
484 -460 140 492 -8 187 331 -670 -470 -449 0 0 
485 -467 131 484 10 119 325 -680 -441 -438 0 0 
486 -477 134 473 -16 123 307 -690 -419 -425 0 0 
487 -482 133 460 -29 124 318 -679 -406 -421 0 0 
488 -495 130 450 -49 124 301 -662 -407 -422 0 0 
489 -504 122 438 -64 123 288 -638 -414 -433 0 0 
490 -508 133 427 -79 112 285 -620 -422 -451 0 0 
491 -515 128 420 -97 108 267 -608 -438 -471 0 0 
492 -519 128 414 -98 102 261 -597 -460 -490 0 0 
493 -524 122 416 -92 97 256 -585 -493 -505 0 0 
494 -517 117 416 -90 78 250 -569 -531 -518 0 0 
495 -517 115 419 -91 72 259 -559 -544 -529 0 0 
496 -517 115 420 -86 78 270 -551 -542 -532 0 0 
497 -515 110 420 -90 79 273 -550 -535 -531 0 0 
498 -514 113 421 -96 84 282 -553 -534 -528 0 0 
499 -514 101 421 -96 88 274 -551 -538 -525 0 0 
500 -513 104 424 -100 95 272 -552 -545 -526 0 0 
501 -514 96 429 -106 105 284 -557 -550 -530 0 0 
502 -512 99 432 -104 100 295 -557 -551 -533 0 0 
503 -509 92 436 -102 93 303 -558 -551 -535 0 0 
504 -510 87 434 -102 83 308 -560 -552 -539 0 0 
505 -509 80 438 -106 81 325 -559 -548 -542 0 0 
506 -505 75 438 -104 72 328 -554 -546 -542 0 0 
507 -504 71 440 -90 62 324 -551 -539 -543 0 0 
508 -505 69 441 -90 48 314 -544 -541 -540 0 0 
509 -505 64 441 -92 47 301 -538 -541 -540 0 0 
510 -504 65 442 -93 39 302 -530 -539 -540 0 0 
511 -504 59 440 -96 42 310 -525 -531 -540 0 0 
512 -504 57 441 -99 48 305 -520 -536 -541 0 0 
513 -501 53 443 -105 58 281 -525 -538 -542 0 0 
514 -501 56 445 -105 68 308 -526 -544 -546 0 0 
515 -503 43 449 -103 72 299 -533 -550 -545 0 0 
516 -500 42 447 -98 70 316 -535 -549 -544 0 0 
517 -500 43 448 -106 59 334 -533 -546 -543 0 0 
518 -498 30 451 -103 50 341 -532 -544 -543 0 0 
519 -493 36 450 -98 57 341 -532 -544 -543 0 0 
520 -493 31 451 -96 46 335 -528 -542 -543 0 0 
521 -494 35 452 -95 42 333 -526 -541 -543 0 0 
522 -491 37 450 -94 44 333 -521 -539 -542 0 0 
523 -496 33 453 -95 51 333 -517 -538 -541 0 0 
524 -492 33 452 -95 54 335 -513 -536 -540 0 0 
525 -493 32 452 -96 55 333 -511 -535 -540 0 0 
526 -489 29 454 -95 56 317 -508 -538 -540 0 0 
527 -492 31 454 -97 59 312 -508 -541 -542 0 0 
528 -491 27 456 -97 63 310 -510 -544 -545 0 0 
529 -492 24 457 -98 64 314 -512 -545 -546 0 0 
530 -489 21 456 -94 62 325 -515 -547 -547 0 0 
531 -487 15 459 -93 63 329 -519 -547 -546 0 0 
532 -484 13 462 -91 60 335 -522 -545 -546 0 0 
533 -486 8 460 -90 51 344 -524 -543 -545 0 0 
534 -484 9 463 -91 46 346 -524 -543 -544 0 0 
535 -484 9 463 -92 41 346 -523 -543 -542 0 0 
536 -481 6 464 -90 39 357 -518 -539 -541 0 0 
537 -484 10 462 -86 41 360 -514 -536 -539 0 0 
538 -483 9 465 -85 42 358 -511 -533 -537 0 0 
539 -483 9 463 -87 44 340 -510 -533 -535 0 0 
540 -486 6 463 -89 46 336 -509 -534 -535 0 0 
541 -483 8 462 -87 46 331 -508 -535 -536 0 0 
542 -481 6 463 -84 44 324 -508 -536 -536 0 0 
543 -482 3 463 -83 44 326 -506 -537 -536 0 0 
544 -481 8 464 -84 45 330 -504 -538 -536 0 0 
545 -482 6 464 -83 47 336 -504 -538 -535 0 0 
546 -482 11 464 -86 53 350 -505 -537 -535 0 0 
547 -482 10 465 -87 56 353 -507 -536 -534 0 0 
548 -482 7 465 -87 58 353 -510 -534 -533 0 0 
549 -482 6 464 -89 60 346 -509 -533 -531 0 0 
550 -475 7 464 -91 60 341 -509 -532 -531 0 0 
551 -478 10 464 -94 62 335 -509 -532 -531 0 0 
552 -481 12 465 -93 60 330 -508 -533 -531 0 0 
553 -481 11 464 -93 59 327 -508 -532 -531 0 0 
554 -482 11 464 -93 59 326 -507 -532 -531 0 0 
555 -481 9 463 -93 59 328 -507 -532 -531 0 0 
556 -478 11 464 -93 59 327 -507 -532 -530 0 0 
557 -481 16 464 -93 57 326 -508 -533 -530 0 0 
558 -484 20 462 -94 58 327 -507 -533 -530 0 0 
559 -480 18 462 -94 62 330 -506 -533 -529 0 0 
560 -480 17 464 -94 66 332 -507 -534 -529 0 0 
561 -479 16 463 -93 69 331 -510 -534 -529 0 0 
562 -481 16 464 -96 75 331 -512 -534 -529 0 0 
563 -482 22 464 -96 76 327 -513 -534 -529 0 0 
564 -481 12 464 -96 78 323 -514 -536 -530 0 0 
565 -482 19 463 -95 76 320 -515 -537 -530 0 0 
566 -481 16 463 -93 72 320 -516 -538 -531 0 0 
567 -480 24 465 -91 68 321 -515 -537 -531 0 0 
568 -481 21 467 -88 59 320 -513 -538 -529 0 0 
569 -479 12 466 -90 61 321 -512 -538 -529 0 0 
570 -483 13 464 -92 67 333 -512 -538 -530 0 0 
571 -479 23 466 -93 75 350 -514 -537 -530 0 0 
572 -478 20 466 -91 72 351 -517 -535 -530 0 0 
573 -480 20 466 -89 67 347 -518 -533 -529 0 0 
574 -482 21 464 -85 60 334 -517 -532 -528 0 0 
575 -479 19 468 -85 61 324 -515 -533 -527 0 0 
576 -478 21 468 -88 65 318 -515 -537 -527 0 0 
577 -480 10 467 -91 72 320 -516 -538 -528 0 0 
578 -480 24 468 -91 76 332 -518 -538 -529 0 0 
579 -478 27 470 -90 72 332 -518 -538 -527 0 0 
580 -478 23 469 -89 70 331 -517 -537 -526 0 0 
581 -477 27 468 -89 69 330 -514 -536 -525 0 0 
582 -479 27 467 -89 70 329 -511 -534 -525 0 0 
583 -477 27 468 -89 71 327 -510 -534 -524 0 0 
584 -478 27 468 -90 75 324 -506 -533 -522 0 0 
585 -478 29 467 -91 77 321 -503 -535 -520 0 0 
586 -481 33 470 -92 78 315 -502 -539 -520 0 0 
587 -474 32 469 -101 95 331 -510 -538 -524 0 0 
588 -478 34 469 -98 100 348 -513 -539 -526 0 0 
589 -474 31 470 -94 100 355 -516 -537 -527 0 0 
590 -478 33 470 -93 94 354 -519 -536 -528 0 0 
591 -472 35 470 -91 88 350 -522 -535 -528 0 0 
592 -478 29 469 -89 82 339 -523 -535 -528 0 0 
593 -475 31 471 -89 82 335 -523 -535 -528 0 0 
594 -474 31 472 -87 85 335 -520 -534 -527 0 0 
595 -477 24 471 -90 89 336 -517 -534 -527 0 0 
596 -477 30 469 -91 92 339 -516 -533 -527 0 0 
597 -477 30 468 -92 95 341 -515 -532 -528 0 0 
598 -478 33 468 -92 95 339 -515 -532 -527 0 0 
599 -480 33 467 -93 94 335 -514 -530 -527 0 0 
600 -476 29 467 -94 91 325 -514 -531 -529 0 0 
601 -481 30 469 -94 94 327 -513 -532 -530 0 0 
602 -480 28 470 -93 96 330 -513 -532 -531 0 0 
603 -479 34 468 -94 95 328 -516 -533 -533 0 0 
604 -479 31 468 -94 93 329 -517 -533 -534 0 0 
605 -479 29 468 -92 89 326 -519 -534 -535 0 0 
606 -480 32 468 -89 83 322 -520 -534 -534 0 0 
607 -482 27 467 -89 80 322 -521 -534 -534 0 0 
608 -476 25 466 -90 78 323 -520 -534 -534 0 0 
609 -479 29 466 -91 78 323 -518 -534 -533 0 0 
610 -479 30 466 -91 79 324 -516 -534 -532 0 0 
611 -478 24 467 -93 80 327 -514 -534 -532 0 0 
612 -477 27 469 -93 82 329 -513 -534 -532 0 0 
613 -479 30 467 -96 80 328 -514 -535 -532 0 0 
614 -476 31 468 -97 80 329 -517 -536 -533 0 0 
615 -479 23 468 -96 80 331 -518 -536 -534 0 0 
616 -480 30 469 -96 75 329 -519 -536 -534 0 0 
617 -477 29 467 -96 73 330 -518 -534 -534 0 0 
618 -477 24 468 -96 71 330 -515 -533 -533 0 0 
619 -481 27 467 -95 67 326 -514 -533 -533 0 0 
620 -481 22 466 -95 65 324 -513 -533 -531 0 0 
621 -477 28 467 -95 65 325 -512 -533 -532 0 0 
622 -477 29 468 -92 62 326 -512 -534 -532 0 0 
623 -479 29 468 -90 62 328 -512 -535 -531 0 0 
624 -478 25 468 -91 64 333 -512 -534 -531 0 0 
625 -479 28 469 -91 66 335 -512 -534 -530 0 0 
626 -481 29 467 -92 73 341 -513 -533 -529 0 0 
627 -475 25 468 -93 76 343 -512 -533 -530 0 0 
628 -480 32 466 -94 78 343 -513 -533 -529 0 0 
629 -480 27 466 -95 83 341 -515 -533 -531 0 0 
630 -479 24 468 -96 84 340 -515 -533 -531 0 0 
631 -477 26 467 -95 81 336 -517 -533 -531 0 0 
632 -478 24 468 -96 78 332 -516 -533 -532 0 0 

% Total Sample Count = 632.
% Sample Count Used for mean/std calculations = 632.

%                                  MagX     MagY     MagZ     AccX     AccY     AccZ     % GyroR   GyroP    GyroY  LButton  RButton
% Means                      : -333.000  253.000  351.000  -29.000  129.000  245.000 -516.000 -554.000 -550.000    0.000    0.000 
% Standard Deviations        :      NaN      NaN      NaN      NaN      NaN      NaN      NaN   28.729      NaN    0.000    0.000 
% Maximums                   :      -71      636      629     2048     2048     1879     1319     -206      475        0        0 
% Minimums                   :     -587     -478     -502    -2047     -862     -640    -1924    -1521    -2010        0        0 
% Range (Maximums - Minimums):      516     1114     1131     4095     2910     2519     3243     1315     2485        0        0 
