% Mike Stanley's IMU Data Logger
% Date & Time   Monday 14 February 2011  -  12:32:29 PM
% MagX, AccX and GyroX values are centered at 0 LSB
% Accelerometer Range = +/- 6g
% Gyroscope     Range = +/- 2000 degrees/second
% Magnetometer  Range = +/- 200uT
% Recorder      Michael Stanley
% Comments      Drop sensor from one hand to lap
% SampleNumber MagX MagY MagZ AccX AccY AccZ GyroR GyroP GyroY LButton RButton
1 644 309 -167 343 38 10 -507 -533 -532 0 0 
2 651 307 -169 351 36 10 -509 -534 -532 0 0 
3 647 310 -167 359 35 9 -514 -535 -532 0 0 
4 649 306 -165 363 36 10 -517 -536 -530 0 0 
5 645 310 -166 357 38 10 -519 -537 -529 0 0 
6 646 304 -167 348 41 10 -519 -536 -530 0 0 
7 645 299 -167 340 43 11 -518 -537 -528 0 0 
8 645 304 -167 328 46 10 -518 -538 -529 0 0 
9 652 303 -168 328 46 10 -518 -539 -529 0 0 
10 645 303 -168 332 46 11 -518 -541 -530 0 0 
11 646 300 -169 342 45 11 -518 -542 -530 0 0 
12 645 309 -172 346 44 12 -517 -543 -530 0 0 
13 646 305 -172 350 44 13 -513 -543 -530 0 0 
14 645 309 -178 349 44 15 -510 -544 -530 0 0 
15 642 303 -175 348 44 16 -506 -543 -530 0 0 
16 643 303 -181 349 44 17 -503 -543 -530 0 0 
17 645 304 -181 346 43 17 -502 -541 -530 0 0 
18 641 304 -181 342 44 18 -504 -539 -529 0 0 
19 643 305 -181 337 44 18 -508 -537 -528 0 0 
20 642 302 -181 333 44 19 -514 -536 -528 0 0 
21 643 310 -182 334 45 19 -520 -536 -528 0 0 
22 643 310 -181 336 46 18 -525 -536 -529 0 0 
23 644 303 -179 335 47 18 -527 -536 -528 0 0 
24 645 303 -177 335 49 19 -527 -535 -528 0 0 
25 644 302 -180 339 49 19 -523 -534 -529 0 0 
26 643 306 -176 345 49 18 -520 -533 -529 0 0 
27 644 305 -177 356 47 17 -516 -533 -530 0 0 
28 642 310 -180 361 45 17 -513 -531 -531 0 0 
29 643 307 -178 364 44 17 -511 -531 -532 0 0 
30 644 307 -179 354 43 17 -510 -530 -532 0 0 
31 642 307 -177 345 43 17 -512 -528 -532 0 0 
32 642 308 -176 340 43 17 -514 -527 -531 0 0 
33 644 306 -174 337 42 16 -516 -526 -531 0 0 
34 643 304 -172 336 41 16 -520 -527 -530 0 0 
35 643 308 -174 338 41 14 -522 -528 -530 0 0 
36 643 303 -172 345 43 14 -524 -529 -529 0 0 
37 646 304 -170 346 44 13 -524 -530 -528 0 0 
38 651 305 -169 345 45 13 -521 -530 -528 0 0 
39 643 309 -169 344 46 12 -518 -529 -528 0 0 
40 643 301 -169 345 45 13 -514 -530 -528 0 0 
41 645 305 -168 347 44 12 -513 -529 -528 0 0 
42 645 307 -166 348 43 13 -512 -529 -528 0 0 
43 647 304 -166 343 43 12 -513 -528 -527 0 0 
44 648 306 -167 339 42 12 -514 -528 -528 0 0 
45 647 303 -164 336 42 11 -516 -529 -528 0 0 
46 646 309 -164 344 41 11 -517 -530 -529 0 0 
47 648 302 -164 348 41 11 -518 -531 -528 0 0 
48 647 305 -162 348 42 10 -518 -530 -527 0 0 
49 650 298 -161 343 45 9 -517 -529 -527 0 0 
50 649 304 -161 340 46 9 -517 -530 -527 0 0 
51 650 301 -163 337 47 9 -517 -531 -526 0 0 
52 649 306 -160 331 49 9 -517 -531 -526 0 0 
53 648 307 -159 329 49 8 -517 -532 -527 0 0 
54 651 301 -159 331 48 8 -518 -533 -527 0 0 
55 649 302 -160 335 47 8 -519 -534 -529 0 0 
56 652 303 -161 347 45 8 -518 -536 -529 0 0 
57 647 303 -160 352 44 8 -518 -537 -530 0 0 
58 647 306 -160 353 45 9 -517 -539 -529 0 0 
59 650 305 -163 343 47 10 -515 -540 -530 0 0 
60 650 308 -164 338 48 11 -512 -540 -530 0 0 
61 648 303 -166 335 48 11 -510 -539 -530 0 0 
62 650 310 -166 335 46 12 -509 -537 -531 0 0 
63 647 306 -165 341 44 12 -510 -536 -532 0 0 
64 652 304 -166 350 41 12 -513 -537 -533 0 0 
65 648 310 -167 358 39 12 -517 -538 -533 0 0 
66 647 306 -165 354 39 12 -521 -537 -532 0 0 
67 648 307 -168 350 41 12 -522 -536 -531 0 0 
68 650 302 -166 342 43 12 -522 -536 -532 0 0 
69 647 305 -166 340 44 12 -520 -536 -531 0 0 
70 646 310 -165 336 45 12 -518 -535 -531 0 0 
71 645 298 -167 333 45 12 -519 -536 -531 0 0 
72 642 305 -166 327 45 11 -518 -537 -531 0 0 
73 644 304 -167 329 44 11 -518 -538 -531 0 0 
74 645 305 -166 335 43 11 -517 -539 -531 0 0 
75 646 305 -169 341 41 12 -516 -540 -531 0 0 
76 643 310 -169 343 41 12 -514 -541 -530 0 0 
77 645 302 -171 346 40 13 -512 -541 -529 0 0 
78 645 305 -173 351 40 15 -511 -540 -529 0 0 
79 646 307 -175 354 40 15 -510 -540 -528 0 0 
80 645 306 -174 355 41 15 -512 -539 -528 0 0 
81 644 304 -175 347 42 16 -513 -538 -528 0 0 
82 644 301 -173 345 43 16 -516 -538 -529 0 0 
83 645 303 -175 346 44 17 -518 -538 -530 0 0 
84 646 303 -174 349 44 15 -519 -537 -530 0 0 
85 646 303 -174 349 44 15 -519 -537 -530 0 0 
86 641 298 -174 349 45 16 -519 -535 -531 0 0 
87 642 300 -173 347 45 16 -518 -534 -530 0 0 
88 642 302 -176 345 45 16 -517 -532 -530 0 0 
89 645 308 -176 337 46 17 -515 -530 -530 0 0 
90 647 307 -174 332 46 17 -514 -529 -531 0 0 
91 643 301 -171 331 45 17 -515 -528 -531 0 0 
92 643 310 -171 338 41 15 -515 -527 -532 0 0 
93 644 305 -169 343 39 15 -518 -527 -532 0 0 
94 645 308 -168 347 38 14 -519 -526 -531 0 0 
95 644 307 -166 350 37 12 -521 -528 -531 0 0 
96 643 310 -164 349 38 12 -521 -530 -531 0 0 
97 643 306 -165 344 40 11 -521 -530 -530 0 0 
98 646 308 -166 336 42 11 -518 -531 -530 0 0 
99 643 302 -165 339 42 11 -515 -532 -529 0 0 
100 646 302 -165 345 42 10 -512 -531 -530 0 0 
101 645 311 -165 348 41 10 -512 -530 -530 0 0 
102 644 311 -164 343 42 10 -512 -530 -529 0 0 
103 646 311 -163 339 42 10 -513 -532 -530 0 0 
104 644 309 -162 338 42 10 -515 -532 -530 0 0 
105 646 307 -164 343 40 10 -515 -532 -530 0 0 
106 645 306 -161 344 40 10 -516 -534 -529 0 0 
107 646 307 -163 345 41 10 -515 -534 -529 0 0 
108 644 305 -162 342 43 12 -513 -534 -528 0 0 
109 644 309 -165 339 44 12 -513 -534 -527 0 0 
110 646 306 -165 336 45 13 -513 -533 -526 0 0 
111 647 307 -167 332 47 14 -513 -533 -526 0 0 
112 650 307 -164 330 47 14 -514 -533 -526 0 0 
113 646 306 -164 328 49 14 -515 -533 -525 0 0 
114 646 300 -163 324 50 14 -516 -535 -526 0 0 
115 648 307 -165 325 51 13 -516 -535 -525 0 0 
116 647 306 -167 327 51 13 -515 -536 -525 0 0 
117 649 307 -166 335 51 13 -514 -537 -526 0 0 
118 646 307 -166 340 51 14 -513 -538 -526 0 0 
119 647 297 -169 343 51 14 -512 -538 -526 0 0 
120 652 300 -170 341 52 14 -511 -538 -525 0 0 
121 647 295 -169 332 53 15 -508 -539 -524 0 0 
122 648 293 -171 328 53 16 -506 -538 -526 0 0 
123 646 300 -173 328 53 16 -506 -537 -526 0 0 
124 647 297 -171 337 49 16 -506 -537 -527 0 0 
125 648 297 -172 343 47 16 -509 -536 -527 0 0 
126 646 300 -172 348 46 17 -511 -534 -526 0 0 
127 649 297 -170 352 45 17 -515 -532 -526 0 0 
128 652 294 -172 349 46 16 -518 -531 -527 0 0 
129 655 291 -169 345 48 16 -523 -530 -526 0 0 
130 651 299 -167 337 50 15 -526 -530 -528 0 0 
131 647 299 -167 338 50 14 -527 -530 -528 0 0 
132 648 296 -166 342 50 13 -526 -531 -530 0 0 
133 648 293 -167 352 47 13 -523 -532 -531 0 0 
134 649 295 -166 355 46 13 -519 -533 -532 0 0 
135 653 297 -165 357 44 13 -516 -532 -532 0 0 
136 647 297 -166 359 43 12 -513 -532 -532 0 0 
137 650 299 -165 356 41 11 -511 -533 -533 0 0 
138 649 298 -166 350 41 11 -509 -534 -532 0 0 
139 647 302 -166 342 40 12 -510 -533 -533 0 0 
140 647 300 -167 333 39 12 -511 -533 -533 0 0 
141 646 299 -166 332 38 11 -513 -533 -533 0 0 
142 645 300 -164 332 37 11 -517 -535 -533 0 0 
143 650 300 -168 342 35 11 -520 -536 -532 0 0 
144 644 298 -165 349 34 11 -521 -537 -532 0 0 
145 649 298 -166 354 34 11 -522 -537 -532 0 0 
146 647 296 -167 357 35 11 -522 -537 -531 0 0 
147 647 298 -167 357 36 12 -521 -537 -531 0 0 
148 648 295 -165 356 36 12 -519 -538 -531 0 0 
149 646 299 -169 355 37 12 -515 -538 -531 0 0 
150 645 299 -169 354 38 13 -512 -540 -530 0 0 
151 648 302 -170 349 39 13 -509 -540 -530 0 0 
152 645 302 -172 343 39 14 -506 -539 -531 0 0 
153 643 299 -173 336 39 17 -505 -539 -530 0 0 
154 643 302 -174 335 38 17 -505 -537 -529 0 0 
155 644 300 -171 336 37 17 -506 -535 -529 0 0 
156 645 298 -172 341 36 19 -510 -532 -528 0 0 
157 649 302 -172 344 36 19 -515 -530 -528 0 0 
158 645 296 -170 346 36 18 -520 -528 -526 0 0 
159 646 304 -168 345 40 16 -524 -526 -526 0 0 
160 653 300 -167 343 42 15 -527 -526 -527 0 0 
161 646 298 -165 342 43 15 -528 -527 -526 0 0 
162 649 299 -162 348 45 12 -527 -528 -527 0 0 
163 646 302 -163 352 45 12 -524 -528 -528 0 0 
164 646 298 -162 355 45 11 -519 -530 -528 0 0 
165 648 291 -162 357 45 11 -514 -530 -529 0 0 
166 653 295 -162 355 46 10 -508 -531 -530 0 0 
167 653 294 -162 350 45 11 -504 -531 -530 0 0 
168 646 299 -165 344 45 12 -503 -530 -531 0 0 
169 648 302 -162 336 43 13 -505 -529 -531 0 0 
170 649 298 -161 340 41 12 -509 -528 -532 0 0 
171 651 304 -161 346 40 12 -514 -529 -532 0 0 
172 648 300 -157 352 39 12 -520 -528 -531 0 0 
173 648 302 -154 352 40 11 -525 -529 -531 0 0 
174 646 303 -155 350 41 11 -528 -529 -531 0 0 
175 650 302 -157 341 45 10 -528 -530 -530 0 0 
176 648 302 -152 335 46 10 -526 -531 -530 0 0 
177 648 303 -155 329 47 10 -524 -534 -529 0 0 
178 649 299 -152 322 49 10 -522 -537 -529 0 0 
179 647 301 -154 322 48 10 -519 -540 -529 0 0 
180 648 299 -156 324 48 10 -517 -545 -529 0 0 
181 648 304 -159 334 46 11 -514 -547 -529 0 0 
182 647 302 -163 340 44 12 -512 -552 -529 0 0 
183 645 293 -168 348 43 13 -508 -554 -529 0 0 
184 648 299 -168 355 42 15 -505 -555 -530 0 0 
185 645 300 -176 360 42 18 -503 -555 -530 0 0 
186 643 298 -178 358 42 19 -502 -554 -529 0 0 
187 644 297 -181 353 43 21 -503 -552 -530 0 0 
188 641 299 -182 336 44 23 -506 -548 -530 0 0 
189 642 296 -183 331 44 23 -509 -545 -530 0 0 
190 641 295 -183 329 44 24 -515 -543 -531 0 0 
191 644 303 -181 335 42 24 -520 -542 -531 0 0 
192 643 296 -181 342 41 24 -525 -540 -531 0 0 
193 641 304 -182 350 40 23 -527 -538 -531 0 0 
194 641 302 -182 364 40 22 -529 -537 -531 0 0 
195 641 303 -180 365 41 21 -529 -535 -531 0 0 
196 639 301 -184 361 42 21 -524 -535 -530 0 0 
197 639 303 -179 352 44 20 -520 -533 -531 0 0 
198 640 304 -180 340 45 20 -515 -533 -532 0 0 
199 641 301 -182 337 44 20 -511 -532 -532 0 0 
200 643 302 -180 335 42 20 -507 -531 -533 0 0 
201 640 301 -181 339 37 20 -505 -530 -533 0 0 
202 643 309 -181 345 34 20 -506 -527 -532 0 0 
203 639 304 -177 351 32 19 -508 -525 -531 0 0 
204 642 302 -177 354 31 19 -513 -523 -529 0 0 
205 646 305 -174 351 32 18 -518 -521 -527 0 0 
206 646 296 -171 345 34 17 -523 -519 -525 0 0 
207 644 296 -168 338 37 14 -528 -520 -525 0 0 
208 646 302 -166 339 39 12 -531 -521 -525 0 0 
209 645 297 -163 342 40 11 -532 -522 -525 0 0 
210 647 299 -161 352 42 9 -529 -525 -526 0 0 
211 646 300 -161 354 42 9 -525 -528 -526 0 0 
212 648 294 -161 352 43 8 -518 -529 -526 0 0 
213 645 295 -160 345 44 8 -509 -528 -525 0 0 
214 647 292 -165 336 44 9 -502 -528 -526 0 0 
215 652 297 -163 336 42 9 -499 -529 -526 0 0 
216 649 295 -163 336 41 9 -501 -529 -526 0 0 
217 650 291 -162 340 39 9 -506 -531 -526 0 0 
218 651 293 -161 342 38 9 -513 -531 -526 0 0 
219 650 295 -159 341 40 8 -520 -532 -525 0 0 
220 652 296 -159 339 43 9 -526 -533 -526 0 0 
221 650 291 -159 339 45 8 -528 -534 -526 0 0 
222 649 294 -160 341 46 7 -526 -536 -527 0 0 
223 649 293 -159 345 48 8 -523 -537 -528 0 0 
224 650 296 -161 344 48 8 -519 -539 -528 0 0 
225 650 297 -163 342 49 8 -516 -538 -530 0 0 
226 648 289 -161 341 47 10 -513 -537 -531 0 0 
227 650 292 -161 341 46 10 -513 -537 -532 0 0 
228 651 290 -162 341 45 11 -512 -538 -533 0 0 
229 647 290 -164 340 43 11 -513 -538 -533 0 0 
230 647 292 -163 343 40 11 -513 -538 -534 0 0 
231 647 297 -164 346 38 11 -514 -539 -534 0 0 
232 648 300 -165 347 38 12 -514 -540 -533 0 0 
233 647 303 -165 345 38 13 -515 -538 -533 0 0 
234 647 301 -168 344 38 14 -515 -537 -533 0 0 
235 645 302 -167 346 37 15 -516 -536 -532 0 0 
236 649 302 -169 353 37 14 -518 -534 -532 0 0 
237 649 298 -164 354 37 14 -520 -534 -531 0 0 
238 645 298 -165 351 38 15 -522 -532 -531 0 0 
239 647 300 -163 341 40 14 -524 -532 -531 0 0 
240 651 303 -163 338 41 14 -523 -532 -532 0 0 
241 645 305 -164 337 41 14 -521 -532 -531 0 0 
242 644 305 -161 337 40 14 -519 -532 -531 0 0 
243 643 303 -163 340 39 13 -515 -533 -531 0 0 
244 644 304 -164 344 38 14 -511 -533 -530 0 0 
245 644 305 -164 346 37 14 -509 -534 -530 0 0 
246 645 300 -164 345 36 14 -507 -532 -528 0 0 
247 648 299 -162 343 36 14 -509 -533 -528 0 0 
248 650 299 -163 341 37 14 -512 -532 -527 0 0 
249 647 296 -162 334 39 13 -518 -531 -527 0 0 
250 644 300 -162 333 41 13 -522 -532 -526 0 0 
251 646 304 -159 335 42 12 -525 -533 -526 0 0 
252 646 300 -158 342 45 11 -527 -534 -526 0 0 
253 647 304 -160 342 46 11 -527 -536 -525 0 0 
254 649 298 -159 341 48 11 -525 -536 -526 0 0 
255 650 294 -160 336 50 11 -522 -538 -526 0 0 
256 650 290 -160 333 51 12 -518 -538 -528 0 0 
257 649 295 -161 332 51 13 -513 -541 -530 0 0 
258 646 297 -164 342 47 14 -509 -543 -531 0 0 
259 645 299 -169 348 44 14 -506 -545 -532 0 0 
260 646 298 -167 355 42 15 -504 -545 -533 0 0 
261 646 295 -171 361 40 16 -505 -545 -532 0 0 
262 650 296 -173 364 39 18 -507 -544 -532 0 0 
263 648 298 -173 358 39 18 -511 -543 -531 0 0 
264 645 298 -173 350 41 19 -514 -541 -531 0 0 
265 644 295 -174 339 43 19 -518 -539 -531 0 0 
266 644 303 -174 337 44 19 -522 -537 -532 0 0 
267 643 304 -173 337 44 18 -525 -536 -532 0 0 
268 646 296 -173 345 42 17 -527 -537 -534 0 0 
269 642 302 -174 353 42 16 -527 -538 -534 0 0 
270 641 300 -173 359 41 16 -525 -538 -534 0 0 
271 645 310 -173 361 40 15 -520 -538 -534 0 0 
272 641 305 -174 356 41 15 -514 -538 -534 0 0 
273 639 309 -176 349 41 17 -510 -537 -534 0 0 
274 644 307 -178 336 40 17 -506 -536 -533 0 0 
275 640 304 -176 332 39 18 -503 -534 -533 0 0 
276 640 306 -177 327 37 18 -503 -531 -532 0 0 
277 647 302 -177 325 36 19 -505 -529 -532 0 0 
278 642 296 -174 330 33 18 -510 -527 -531 0 0 
279 640 309 -173 333 32 18 -517 -525 -529 0 0 
280 642 307 -170 337 32 16 -523 -525 -527 0 0 
281 645 307 -168 339 35 14 -528 -525 -525 0 0 
282 642 301 -168 338 38 13 -530 -525 -524 0 0 
283 645 296 -165 338 40 12 -530 -527 -523 0 0 
284 646 298 -164 343 44 11 -525 -526 -524 0 0 
285 644 303 -164 347 45 10 -521 -527 -524 0 0 
286 645 295 -163 353 45 10 -515 -526 -525 0 0 
287 645 303 -163 359 43 10 -510 -526 -526 0 0 
288 648 301 -161 359 42 10 -507 -527 -527 0 0 
289 645 294 -163 358 41 9 -507 -530 -528 0 0 
290 646 293 -164 354 41 9 -507 -532 -529 0 0 
291 645 296 -163 352 40 10 -508 -532 -529 0 0 
292 646 292 -162 349 41 11 -508 -533 -529 0 0 
293 648 288 -163 345 42 11 -509 -532 -528 0 0 
294 649 298 -161 335 43 12 -510 -531 -528 0 0 
295 647 295 -160 333 43 12 -513 -531 -529 0 0 
296 648 293 -162 335 42 11 -517 -530 -529 0 0 
297 646 289 -159 344 41 11 -522 -530 -529 0 0 
298 648 298 -156 344 42 10 -526 -531 -529 0 0 
299 647 299 -157 342 43 9 -529 -532 -529 0 0 
300 647 292 -157 337 46 8 -529 -535 -529 0 0 
301 648 296 -158 335 47 8 -525 -537 -528 0 0 
302 650 300 -158 335 49 9 -519 -541 -529 0 0 
303 651 302 -161 329 50 10 -511 -542 -528 0 0 
304 646 296 -166 326 49 11 -503 -542 -528 0 0 
305 646 294 -164 327 48 13 -496 -540 -529 0 0 
306 652 298 -169 338 43 14 -494 -537 -529 0 0 
307 645 296 -168 342 41 15 -497 -536 -528 0 0 
308 651 294 -167 343 39 15 -504 -535 -528 0 0 
309 650 299 -168 340 38 15 -514 -534 -527 0 0 
310 648 299 -167 339 40 13 -522 -534 -527 0 0 
311 646 293 -164 341 41 13 -529 -535 -527 0 0 
312 646 295 -165 344 43 11 -533 -537 -527 0 0 
313 651 297 -166 349 46 11 -531 -539 -527 0 0 
314 647 297 -166 350 48 12 -527 -540 -528 0 0 
315 644 297 -168 349 50 12 -521 -542 -529 0 0 
316 646 299 -168 345 50 13 -516 -541 -530 0 0 
317 648 296 -171 346 49 14 -511 -540 -532 0 0 
318 643 298 -168 347 47 15 -510 -540 -533 0 0 
319 646 300 -170 343 44 17 -509 -538 -533 0 0 
320 645 295 -174 341 43 17 -511 -537 -533 0 0 
321 645 302 -173 342 41 17 -513 -536 -534 0 0 
322 643 305 -172 345 39 15 -515 -535 -533 0 0 
323 645 300 -172 347 38 15 -517 -536 -534 0 0 
324 644 302 -174 348 38 15 -519 -536 -533 0 0 
325 646 305 -174 349 38 15 -519 -538 -533 0 0 
326 642 299 -175 358 38 15 -517 -537 -533 0 0 
327 648 304 -173 362 37 15 -517 -538 -534 0 0 
328 643 305 -175 364 38 15 -517 -538 -534 0 0 
329 641 307 -174 356 39 13 -516 -538 -535 0 0 
330 643 302 -176 347 40 14 -515 -537 -534 0 0 
331 640 306 -177 338 41 14 -514 -535 -534 0 0 
332 646 303 -173 329 40 14 -513 -534 -534 0 0 
333 640 303 -175 329 39 15 -514 -534 -533 0 0 
334 641 310 -175 328 38 14 -513 -533 -532 0 0 
335 640 308 -176 330 36 14 -514 -533 -531 0 0 
336 642 299 -174 332 36 14 -515 -533 -529 0 0 
337 641 305 -176 335 36 15 -515 -531 -528 0 0 
338 642 309 -174 340 37 15 -514 -532 -526 0 0 
339 642 307 -173 342 38 15 -513 -530 -525 0 0 
340 642 302 -172 342 39 15 -513 -528 -523 0 0 
341 646 303 -174 341 41 15 -514 -526 -522 0 0 
342 643 305 -170 331 44 13 -516 -526 -522 0 0 
343 648 301 -168 329 45 13 -518 -525 -522 0 0 
344 645 302 -168 332 46 11 -522 -525 -521 0 0 
345 648 302 -165 339 48 9 -525 -526 -522 0 0 
346 649 299 -162 340 49 8 -526 -526 -522 0 0 
347 654 294 -160 341 50 8 -525 -527 -523 0 0 
348 648 302 -162 347 51 8 -521 -528 -524 0 0 
349 648 296 -162 350 51 8 -519 -530 -524 0 0 
350 647 295 -163 352 50 8 -517 -532 -526 0 0 
351 649 297 -160 353 50 8 -515 -533 -528 0 0 
352 654 298 -164 354 49 8 -514 -535 -530 0 0 
353 650 299 -162 353 48 9 -515 -538 -532 0 0 
354 646 300 -162 343 48 9 -517 -539 -531 0 0 
355 646 297 -165 335 48 10 -519 -543 -532 0 0 
356 651 299 -168 325 48 10 -521 -549 -534 0 0 
357 646 292 -168 317 48 11 -524 -552 -534 0 0 
358 646 304 -171 298 48 11 -527 -553 -535 0 0 
359 644 303 -170 288 47 12 -532 -554 -536 0 0 
360 642 307 -168 282 45 12 -540 -556 -536 0 0 
361 639 301 -170 246 45 12 -551 -557 -534 0 0 
362 646 311 -157 162 53 15 -567 -530 -525 0 0 
363 639 327 -137 63 60 20 -577 -473 -529 0 0 
364 635 350 -112 -76 61 21 -582 -432 -562 0 0 
365 628 369 -83 -80 53 19 -595 -406 -618 0 0 
366 616 399 -44 -62 44 18 -622 -385 -671 0 0 
367 595 430 0 -24 27 16 -656 -370 -708 0 0 
368 576 458 46 -8 22 15 -695 -360 -734 0 0 
369 552 492 97 5 19 12 -731 -353 -750 0 0 
370 520 506 147 24 16 7 -762 -348 -757 0 0 
371 493 520 201 31 17 4 -784 -347 -756 0 0 
372 457 524 251 36 17 1 -795 -349 -751 0 0 
373 426 525 296 40 18 -2 -796 -354 -742 0 0 
374 393 526 337 43 20 -11 -786 -364 -732 0 0 
375 362 527 372 43 21 -15 -769 -377 -721 0 0 
376 328 531 401 43 21 -18 -745 -394 -713 0 0 
377 298 527 422 42 21 -25 -715 -416 -705 0 0 
378 275 533 439 40 21 -28 -682 -440 -698 0 0 
379 246 524 447 39 20 -30 -647 -467 -694 0 0 
380 223 541 451 36 20 -32 -613 -496 -691 0 0 
381 202 543 450 34 19 -32 -579 -526 -690 0 0 
382 187 548 445 32 18 -31 -548 -556 -690 0 0 
383 172 560 437 29 16 -27 -521 -585 -691 0 0 
384 156 563 426 27 15 -24 -500 -613 -693 0 0 
385 143 575 415 26 14 -20 -484 -638 -694 0 0 
386 132 589 399 23 11 -13 -474 -660 -696 0 0 
387 117 590 389 22 10 -10 -467 -680 -697 0 0 
388 109 605 376 21 9 -7 -465 -696 -699 0 0 
389 91 609 366 21 7 -4 -466 -710 -699 0 0 
390 79 613 355 19 5 0 -469 -721 -699 0 0 
391 72 613 349 18 4 2 -475 -729 -700 0 0 
392 53 622 343 17 3 3 -481 -735 -699 0 0 
393 42 626 338 16 0 6 -489 -740 -700 0 0 
394 27 625 335 15 -2 8 -495 -744 -700 0 0 
395 11 624 334 15 -3 9 -504 -747 -701 0 0 
396 -5 621 336 16 -5 8 -510 -748 -702 0 0 
397 -21 621 340 18 -7 7 -515 -750 -703 0 0 
398 -39 617 343 19 -7 6 -519 -751 -704 0 0 
399 -48 615 347 22 -9 6 -521 -753 -704 0 0 
400 -68 608 354 24 -9 5 -518 -754 -702 0 0 
401 -82 610 359 25 -9 4 -512 -756 -699 0 0 
402 -92 603 364 27 -9 1 -504 -756 -696 0 0 
403 -103 603 369 27 -8 -1 -492 -761 -690 0 0 
404 -108 609 374 27 -7 -3 -481 -782 -681 0 0 
405 -122 614 375 37 -10 -6 -467 -785 -682 0 0 
406 -130 619 373 20 -1 12 -439 -734 -683 0 0 
407 -145 624 373 11 3 12 -410 -719 -667 0 0 
408 -171 623 382 -6 -3 14 -400 -685 -661 0 0 
409 -179 628 410 118 -83 -21 -422 -785 -786 0 0 
410 -110 658 428 256 -60 -40 -474 -1044 -749 0 0 
411 13 688 447 352 -3 -16 -482 -1078 -425 0 0 
412 -14 708 421 2048 2048 1669 -421 -523 58 0 0 
413 8 773 290 2048 2048 2042 -534 -362 -502 0 0 
414 134 814 89 1288 2048 -1 -132 70 -406 0 0 
415 285 783 -41 -229 1542 -510 443 263 375 0 0 
416 410 726 18 520 499 -684 847 319 469 0 0 
417 500 670 112 1388 -296 -2047 150 -66 244 0 0 
418 556 615 190 698 -28 -445 -662 -163 77 0 0 
419 584 569 243 554 84 170 -836 -178 -56 0 0 
420 614 534 256 414 95 389 -730 -250 -182 0 0 
421 640 507 246 352 25 327 -543 -379 -223 0 0 
422 674 480 230 369 -105 111 -384 -472 -218 0 0 
423 703 446 224 393 -176 89 -300 -489 -208 0 0 
424 724 414 227 401 -216 123 -309 -457 -230 0 0 
425 738 401 241 411 -252 167 -337 -449 -283 0 0 
426 745 378 258 444 -292 282 -428 -476 -351 0 0 
427 750 371 270 480 -287 273 -565 -510 -416 0 0 
428 759 352 277 563 -212 64 -635 -531 -463 0 0 
429 764 335 276 603 -173 27 -633 -550 -479 0 0 
430 772 320 277 611 -147 13 -606 -566 -470 0 0 
431 777 320 270 357 -71 60 -569 -570 -478 0 0 
432 779 316 264 289 -49 97 -544 -574 -501 0 0 
433 784 325 257 300 -64 113 -535 -575 -519 0 0 
434 784 317 251 314 -106 94 -527 -573 -526 0 0 
435 788 315 247 315 -111 82 -524 -567 -529 0 0 
436 787 317 246 324 -118 73 -527 -558 -530 0 0 
437 792 317 242 320 -119 72 -526 -553 -530 0 0 
438 790 317 241 303 -112 82 -526 -548 -531 0 0 
439 792 311 242 303 -113 86 -528 -543 -531 0 0 
440 793 311 240 305 -113 80 -527 -545 -531 0 0 
441 795 312 239 307 -109 41 -520 -545 -530 0 0 
442 796 314 240 311 -111 60 -520 -542 -528 0 0 
443 795 320 236 313 -106 66 -521 -540 -528 0 0 
444 795 314 237 314 -109 58 -519 -539 -529 0 0 
445 794 317 235 311 -113 56 -518 -539 -529 0 0 
446 794 318 235 311 -118 57 -515 -537 -529 0 0 
447 794 318 236 309 -122 62 -514 -534 -529 0 0 
448 796 325 236 310 -125 59 -512 -531 -530 0 0 
449 794 319 238 311 -126 58 -511 -530 -530 0 0 
450 793 317 238 315 -129 55 -511 -531 -531 0 0 
451 796 319 236 318 -127 55 -511 -532 -529 0 0 
452 799 323 237 320 -127 57 -513 -534 -529 0 0 
453 795 320 235 316 -122 54 -514 -539 -529 0 0 
454 796 311 233 319 -119 51 -516 -539 -529 0 0 
455 793 320 233 319 -120 53 -516 -537 -529 0 0 
456 795 315 233 312 -120 50 -516 -535 -530 0 0 
457 792 320 234 311 -126 51 -515 -534 -530 0 0 
458 792 315 233 310 -128 49 -515 -535 -531 0 0 
459 795 314 235 307 -131 54 -514 -534 -530 0 0 
460 794 317 232 310 -128 57 -514 -532 -530 0 0 
461 794 314 235 313 -127 55 -513 -532 -529 0 0 
462 792 318 236 313 -128 55 -513 -533 -529 0 0 
463 794 322 234 309 -129 61 -514 -533 -529 0 0 
464 793 322 235 308 -129 60 -516 -535 -529 0 0 
465 796 320 233 307 -129 58 -516 -534 -529 0 0 
466 793 325 234 308 -129 53 -517 -536 -529 0 0 
467 792 320 234 307 -128 51 -517 -535 -529 0 0 
468 798 319 234 307 -128 49 -517 -536 -530 0 0 
469 792 321 233 308 -127 50 -516 -535 -530 0 0 
470 794 321 233 308 -126 55 -515 -533 -529 0 0 
471 800 323 235 309 -125 56 -515 -533 -528 0 0 
472 791 325 236 310 -124 56 -515 -534 -528 0 0 
473 794 321 233 311 -123 57 -515 -533 -529 0 0 
474 793 313 232 311 -124 56 -515 -534 -529 0 0 
475 795 322 235 310 -125 55 -515 -533 -529 0 0 
476 793 321 235 309 -125 53 -516 -534 -529 0 0 
477 794 317 233 309 -125 54 -516 -534 -528 0 0 
478 795 318 234 310 -125 55 -516 -534 -529 0 0 
479 792 314 234 313 -124 54 -516 -534 -528 0 0 
480 791 307 235 313 -125 55 -516 -534 -528 0 0 
481 794 310 233 312 -125 54 -515 -534 -529 0 0 
482 796 319 234 312 -126 53 -516 -535 -528 0 0 
483 799 321 234 312 -127 54 -515 -535 -529 0 0 
484 794 311 234 313 -127 54 -516 -535 -529 0 0 
485 795 324 234 313 -126 54 -516 -535 -528 0 0 
486 794 319 233 313 -125 52 -516 -535 -529 0 0 
487 795 322 232 313 -125 53 -516 -535 -529 0 0 
488 793 319 232 313 -125 53 -516 -535 -529 0 0 
489 799 318 234 311 -125 52 -517 -535 -529 0 0 
490 794 318 232 310 -125 52 -517 -536 -530 0 0 
491 798 317 232 310 -125 51 -517 -536 -529 0 0 
492 795 317 231 310 -124 52 -517 -535 -529 0 0 
493 795 315 235 310 -124 52 -517 -536 -528 0 0 
494 797 312 232 310 -124 53 -516 -535 -529 0 0 
495 796 319 233 309 -124 53 -517 -534 -529 0 0 
496 796 316 233 310 -124 54 -516 -534 -529 0 0 
497 795 319 232 310 -124 54 -516 -535 -529 0 0 
498 795 319 232 310 -124 54 -516 -535 -529 0 0 
499 796 317 233 310 -125 54 -516 -535 -529 0 0 
500 795 316 231 311 -126 55 -517 -535 -529 0 0 
501 797 321 231 311 -126 54 -517 -535 -528 0 0 
502 796 321 233 310 -126 55 -516 -534 -528 0 0 
503 796 317 235 310 -127 55 -516 -534 -529 0 0 
504 796 313 231 311 -127 55 -516 -534 -529 0 0 
505 796 309 232 311 -127 56 -516 -534 -529 0 0 
506 795 313 232 312 -127 55 -516 -533 -529 0 0 
507 797 318 233 313 -127 55 -516 -534 -529 0 0 
508 797 323 233 313 -127 55 -516 -534 -529 0 0 
509 795 315 232 311 -127 55 -515 -534 -529 0 0 
510 798 315 234 311 -128 54 -515 -534 -530 0 0 
511 794 314 232 310 -128 55 -515 -533 -530 0 0 
512 794 319 233 311 -128 55 -515 -534 -529 0 0 
513 796 315 233 311 -128 54 -515 -534 -530 0 0 
514 796 317 233 311 -128 54 -516 -535 -530 0 0 
515 799 317 233 310 -127 55 -516 -534 -530 0 0 
516 798 311 233 309 -127 55 -517 -535 -530 0 0 
517 796 313 231 309 -127 55 -517 -535 -529 0 0 
518 792 309 231 308 -128 55 -516 -534 -529 0 0 
519 796 311 232 309 -128 55 -516 -534 -529 0 0 
520 794 311 233 310 -127 54 -516 -534 -529 0 0 
521 797 306 233 310 -127 53 -515 -534 -529 0 0 
522 796 316 231 310 -126 52 -516 -534 -529 0 0 
523 796 307 233 310 -126 51 -516 -534 -529 0 0 
524 796 311 231 310 -126 51 -515 -534 -529 0 0 
525 797 311 234 311 -125 52 -516 -534 -530 0 0 
526 795 310 233 310 -126 53 -515 -533 -530 0 0 
527 795 312 231 310 -126 52 -515 -534 -529 0 0 
528 794 313 232 310 -126 52 -515 -535 -529 0 0 
529 796 308 231 310 -126 53 -516 -534 -530 0 0 
530 794 317 233 310 -126 53 -516 -535 -529 0 0 
531 799 312 230 311 -125 54 -516 -535 -529 0 0 
532 796 315 234 311 -124 53 -516 -535 -529 0 0 
533 798 311 233 311 -124 53 -516 -535 -529 0 0 
534 795 313 231 311 -124 53 -516 -534 -529 0 0 
535 796 312 233 311 -124 53 -516 -533 -529 0 0 
536 795 313 233 311 -124 53 -516 -533 -529 0 0 
537 797 315 233 311 -125 53 -516 -533 -529 0 0 
538 797 311 232 311 -125 52 -516 -533 -529 0 0 
539 797 308 234 310 -125 52 -516 -533 -529 0 0 
540 796 313 233 309 -125 52 -516 -533 -529 0 0 
541 798 315 237 310 -126 54 -515 -533 -529 0 0 
542 796 320 235 310 -126 54 -516 -533 -530 0 0 
543 794 321 232 311 -126 54 -515 -533 -530 0 0 
544 797 317 233 312 -125 54 -516 -534 -530 0 0 
545 796 314 234 312 -125 53 -516 -534 -529 0 0 
546 795 317 233 311 -126 53 -517 -534 -530 0 0 
547 795 317 236 310 -126 54 -517 -534 -529 0 0 
548 798 316 233 310 -126 54 -517 -534 -529 0 0 
549 794 320 235 309 -126 54 -516 -534 -529 0 0 
550 794 316 234 309 -126 55 -516 -534 -529 0 0 
551 795 318 234 309 -126 55 -516 -532 -529 0 0 
552 798 321 235 310 -126 54 -516 -533 -530 0 0 
553 795 315 235 310 -126 54 -515 -533 -530 0 0 
554 796 311 235 310 -126 55 -515 -533 -529 0 0 
555 795 317 235 311 -126 55 -515 -533 -529 0 0 
556 798 313 236 310 -126 55 -516 -533 -529 0 0 
557 794 316 234 310 -126 55 -516 -534 -530 0 0 
558 795 320 237 310 -126 55 -516 -534 -530 0 0 
559 795 317 236 310 -126 55 -516 -535 -529 0 0 
560 795 320 235 310 -126 54 -516 -535 -529 0 0 
561 798 315 235 310 -125 55 -516 -534 -530 0 0 
562 794 313 234 311 -125 55 -515 -533 -530 0 0 
563 797 309 235 310 -125 53 -516 -534 -530 0 0 
564 797 307 236 309 -125 52 -516 -534 -530 0 0 
565 796 316 237 309 -126 52 -515 -534 -529 0 0 
566 795 313 234 310 -126 52 -516 -535 -530 0 0 
567 795 313 235 311 -126 53 -515 -535 -530 0 0 
568 794 315 236 312 -126 53 -516 -534 -529 0 0 
569 795 318 238 312 -126 55 -516 -534 -529 0 0 
570 794 318 234 311 -126 54 -516 -534 -530 0 0 
571 793 315 236 310 -126 55 -516 -535 -529 0 0 
572 794 314 238 310 -125 55 -516 -535 -530 0 0 
573 796 317 236 310 -125 54 -516 -534 -529 0 0 
574 796 314 235 310 -125 55 -515 -534 -529 0 0 
575 796 318 238 309 -125 55 -516 -534 -529 0 0 
576 797 318 236 309 -125 55 -516 -534 -529 0 0 
577 795 317 235 309 -125 55 -517 -534 -529 0 0 
578 796 309 236 309 -125 54 -516 -535 -529 0 0 
579 796 306 236 309 -126 54 -517 -534 -530 0 0 
580 794 307 234 310 -126 54 -516 -534 -529 0 0 
581 794 314 238 310 -126 54 -515 -535 -530 0 0 
582 797 317 237 310 -126 55 -516 -534 -530 0 0 
583 794 315 235 309 -127 55 -515 -534 -530 0 0 
584 797 320 237 310 -127 55 -516 -534 -529 0 0 
585 795 316 237 311 -127 54 -515 -534 -529 0 0 
586 794 319 237 312 -127 55 -516 -534 -529 0 0 
587 802 318 235 312 -127 55 -516 -535 -529 0 0 
588 795 318 237 312 -127 55 -516 -534 -530 0 0 
589 792 320 238 312 -126 54 -516 -534 -529 0 0 
590 794 313 237 311 -126 55 -515 -534 -530 0 0 
591 794 311 236 311 -126 55 -516 -534 -530 0 0 
592 794 311 237 310 -126 54 -516 -535 -529 0 0 
593 795 315 238 310 -126 54 -516 -534 -529 0 0 
594 794 316 237 310 -126 54 -516 -534 -529 0 0 
595 797 316 236 310 -125 54 -516 -534 -529 0 0 
596 799 316 237 310 -125 53 -515 -533 -529 0 0 
597 794 317 240 309 -124 54 -515 -533 -529 0 0 
598 794 315 237 308 -125 54 -515 -533 -530 0 0 
599 793 315 238 307 -125 54 -515 -533 -530 0 0 
600 794 315 236 308 -126 53 -516 -534 -529 0 0 
601 793 317 237 309 -126 53 -516 -534 -530 0 0 
602 795 318 236 311 -126 54 -514 -533 -530 0 0 
603 796 314 240 312 -126 55 -515 -533 -529 0 0 
604 793 315 238 313 -126 55 -514 -532 -529 0 0 
605 793 314 239 311 -125 55 -515 -532 -529 0 0 
606 792 314 238 310 -126 55 -515 -533 -529 0 0 
607 793 313 239 310 -126 55 -515 -532 -529 0 0 
608 797 312 241 309 -127 55 -516 -534 -530 0 0 
609 794 322 238 309 -128 56 -515 -534 -529 0 0 
610 795 313 238 310 -128 56 -515 -534 -529 0 0 
611 792 319 238 310 -128 57 -516 -535 -529 0 0 
612 795 319 236 310 -128 58 -516 -535 -529 0 0 
613 793 319 240 311 -128 57 -516 -536 -530 0 0 
614 793 316 239 311 -127 55 -516 -536 -530 0 0 
615 796 318 238 310 -126 55 -516 -535 -530 0 0 
616 793 316 239 310 -126 55 -516 -534 -529 0 0 
617 798 315 239 310 -125 55 -515 -534 -529 0 0 
618 794 315 240 310 -126 56 -515 -533 -530 0 0 
619 794 312 240 310 -125 56 -515 -535 -529 0 0 
620 794 317 238 310 -126 56 -515 -535 -530 0 0 

% Total Sample Count = 620.
% Sample Count Used for mean/std calculations = 620.

%                                  MagX     MagY     MagZ     AccX     AccY     AccZ     % GyroR   GyroP    GyroY  LButton  RButton
% Means                      :  651.000  333.000    5.000  318.000   -2.000   27.000 -515.000 -533.000 -531.000    0.000    0.000 
% Standard Deviations        :      NaN      NaN    9.415      NaN      NaN      NaN      NaN      NaN      NaN    0.000    0.000 
% Maximums                   :      802      814      451     2048     2048     2042      847      319      469        0        0 
% Minimums                   :     -179      288     -184     -229     -296    -2047     -836    -1078     -786        0        0 
% Range (Maximums - Minimums):      981      526      635     2277     2344     4089     1683     1397     1255        0        0 
