% Mike Stanley's IMU Data Logger
% Date & Time   Tuesday 08 February 2011  -  04:15:33 PM
% MagX, AccX and GyroX values are centered at 0 LSB
% Accelerometer Range = +/- 6g
% Gyroscope     Range = +/- 2000 degrees/second
% Magnetometer  Range = +/- 200uT
% Recorder      Michael Stanley
% Comments      sensor shaked
% SampleNumber MagX MagY MagZ AccX AccY AccZ GyroR GyroP GyroY LButton RButton
1 -319 -339 500 -281 -30 194 -517 -535 -529 0 0 
2 -320 -337 502 -280 -28 194 -516 -536 -529 0 0 
3 -320 -343 502 -280 -29 194 -516 -536 -528 0 0 
4 -318 -344 503 -281 -28 194 -516 -536 -529 0 0 
5 -319 -337 502 -283 -26 197 -516 -536 -529 0 0 
6 -322 -341 502 -283 -26 198 -515 -535 -529 0 0 
7 -319 -338 503 -283 -26 198 -516 -536 -529 0 0 
8 -319 -338 499 -283 -25 197 -516 -536 -529 0 0 
9 -320 -341 502 -283 -27 199 -517 -536 -530 0 0 
10 -315 -340 502 -284 -30 201 -517 -535 -530 0 0 
11 -316 -345 503 -283 -33 200 -517 -535 -530 0 0 
12 -319 -343 502 -282 -34 199 -518 -535 -530 0 0 
13 -320 -340 503 -281 -35 197 -518 -535 -530 0 0 
14 -319 -343 501 -282 -35 196 -517 -535 -530 0 0 
15 -319 -340 503 -282 -35 194 -516 -536 -530 0 0 
16 -316 -342 501 -281 -35 193 -516 -536 -529 0 0 
17 -317 -338 503 -282 -34 192 -515 -536 -528 0 0 
18 -316 -341 504 -281 -33 193 -515 -536 -528 0 0 
19 -316 -342 504 -282 -32 195 -516 -537 -528 0 0 
20 -317 -342 503 -283 -31 200 -518 -536 -528 0 0 
21 -319 -338 504 -286 -28 208 -518 -536 -530 0 0 
22 -315 -343 503 -287 -28 209 -518 -535 -529 0 0 
23 -322 -337 503 -286 -29 209 -517 -533 -529 0 0 
24 -319 -342 503 -286 -30 204 -516 -533 -529 0 0 
25 -316 -343 504 -285 -30 201 -515 -534 -529 0 0 
26 -315 -343 502 -285 -30 197 -516 -534 -529 0 0 
27 -314 -339 503 -284 -30 193 -515 -535 -529 0 0 
28 -319 -339 502 -283 -31 192 -516 -534 -530 0 0 
29 -316 -338 503 -283 -31 193 -516 -535 -529 0 0 
30 -316 -342 504 -282 -32 192 -516 -535 -529 0 0 
31 -317 -341 503 -281 -32 192 -515 -536 -529 0 0 
32 -320 -344 504 -280 -32 193 -515 -534 -529 0 0 
33 -317 -342 507 -281 -33 194 -515 -536 -529 0 0 
34 -317 -336 504 -280 -33 195 -515 -535 -529 0 0 
35 -315 -337 500 -280 -32 196 -515 -535 -529 0 0 
36 -315 -344 506 -281 -31 197 -515 -535 -529 0 0 
37 -314 -343 506 -281 -32 197 -516 -535 -529 0 0 
38 -316 -339 504 -281 -30 197 -517 -534 -529 0 0 
39 -319 -343 503 -282 -29 199 -517 -535 -529 0 0 
40 -315 -345 504 -284 -29 205 -517 -533 -529 0 0 
41 -319 -339 505 -284 -29 204 -516 -534 -528 0 0 
42 -315 -342 505 -282 -28 201 -514 -534 -528 0 0 
43 -315 -342 505 -280 -27 194 -514 -534 -529 0 0 
44 -317 -340 503 -280 -27 192 -513 -533 -528 0 0 
45 -318 -338 503 -280 -26 190 -514 -534 -529 0 0 
46 -315 -337 504 -279 -23 191 -515 -536 -529 0 0 
47 -316 -338 504 -281 -24 195 -516 -536 -530 0 0 
48 -314 -335 505 -282 -26 200 -517 -535 -531 0 0 
49 -313 -342 503 -283 -28 204 -516 -535 -530 0 0 
50 -316 -338 504 -281 -32 203 -516 -534 -529 0 0 
51 -314 -336 506 -281 -33 200 -515 -534 -530 0 0 
52 -317 -339 505 -280 -33 198 -515 -534 -529 0 0 
53 -316 -339 506 -281 -31 197 -515 -534 -529 0 0 
54 -316 -340 503 -282 -30 198 -515 -534 -529 0 0 
55 -316 -343 503 -281 -30 200 -515 -534 -530 0 0 
56 -315 -342 503 -282 -31 204 -516 -534 -529 0 0 
57 -317 -344 503 -283 -30 205 -516 -535 -529 0 0 
58 -318 -337 503 -284 -28 205 -516 -534 -529 0 0 
59 -315 -338 505 -283 -30 202 -515 -533 -529 0 0 
60 -313 -338 502 -282 -31 199 -515 -534 -530 0 0 
61 -315 -339 505 -281 -31 196 -515 -534 -530 0 0 
62 -315 -340 505 -280 -33 195 -516 -534 -529 0 0 
63 -317 -342 506 -280 -34 196 -515 -535 -530 0 0 
64 -317 -338 504 -280 -34 199 -517 -536 -529 0 0 
65 -316 -340 505 -280 -34 200 -517 -535 -530 0 0 
66 -318 -344 503 -283 -33 205 -518 -535 -529 0 0 
67 -311 -341 505 -284 -32 206 -517 -534 -529 0 0 
68 -314 -341 504 -285 -31 206 -516 -534 -528 0 0 
69 -315 -338 507 -286 -25 203 -514 -534 -528 0 0 
70 -317 -340 505 -285 -25 202 -515 -534 -529 0 0 
71 -316 -344 507 -286 -26 203 -516 -534 -530 0 0 
72 -315 -340 505 -285 -30 205 -516 -534 -530 0 0 
73 -313 -339 504 -283 -31 203 -517 -534 -530 0 0 
74 -315 -342 505 -283 -32 202 -517 -533 -530 0 0 
75 -315 -347 504 -283 -34 202 -517 -533 -530 0 0 
76 -316 -342 503 -282 -34 199 -516 -533 -529 0 0 
77 -318 -341 504 -281 -34 198 -517 -533 -530 0 0 
78 -317 -340 506 -282 -33 197 -517 -534 -529 0 0 
79 -316 -339 504 -283 -30 200 -517 -534 -530 0 0 
80 -316 -340 504 -283 -29 200 -516 -534 -529 0 0 
81 -315 -343 503 -284 -28 201 -516 -533 -529 0 0 
82 -316 -340 504 -283 -26 201 -516 -533 -529 0 0 
83 -317 -342 503 -283 -25 199 -515 -533 -529 0 0 
84 -320 -347 505 -283 -25 196 -515 -533 -529 0 0 
85 -314 -347 505 -282 -26 193 -516 -534 -530 0 0 
86 -319 -339 503 -281 -27 194 -516 -534 -530 0 0 
87 -319 -344 504 -281 -29 197 -517 -534 -531 0 0 
88 -316 -340 504 -281 -32 200 -518 -534 -531 0 0 
89 -318 -341 502 -281 -31 200 -517 -534 -531 0 0 
90 -314 -343 503 -281 -31 200 -518 -534 -530 0 0 
91 -317 -345 502 -281 -35 201 -518 -533 -530 0 0 
92 -315 -348 502 -281 -34 200 -517 -534 -530 0 0 
93 -316 -339 504 -281 -31 199 -516 -534 -528 0 0 
94 -317 -343 502 -280 -30 198 -515 -533 -529 0 0 
95 -319 -340 501 -282 -27 196 -515 -534 -529 0 0 
96 -317 -348 503 -281 -26 195 -515 -534 -530 0 0 
97 -318 -341 503 -280 -26 194 -516 -534 -529 0 0 
98 -319 -340 505 -280 -26 192 -516 -534 -530 0 0 
99 -318 -345 504 -280 -26 192 -516 -535 -530 0 0 
100 -318 -343 502 -280 -27 193 -516 -535 -530 0 0 
101 -318 -339 503 -281 -30 201 -517 -535 -530 0 0 
102 -318 -339 502 -282 -31 204 -517 -534 -530 0 0 
103 -317 -341 502 -283 -31 206 -517 -533 -530 0 0 
104 -315 -341 501 -282 -32 203 -517 -533 -529 0 0 
105 -317 -342 503 -282 -33 200 -515 -533 -530 0 0 
106 -318 -347 503 -282 -34 196 -516 -533 -529 0 0 
107 -315 -340 504 -280 -33 191 -515 -534 -529 0 0 
108 -318 -341 503 -280 -33 190 -514 -535 -529 0 0 
109 -318 -344 501 -281 -33 189 -515 -534 -529 0 0 
110 -318 -344 502 -281 -32 189 -516 -536 -528 0 0 
111 -319 -344 502 -281 -30 193 -516 -535 -529 0 0 
112 -318 -340 502 -282 -29 193 -515 -535 -529 0 0 
113 -317 -346 502 -282 -28 193 -515 -535 -529 0 0 
114 -314 -346 503 -282 -27 196 -516 -536 -529 0 0 
115 -318 -342 505 -283 -27 200 -516 -535 -530 0 0 
116 -316 -347 502 -284 -27 205 -517 -535 -530 0 0 
117 -315 -338 502 -285 -29 207 -517 -535 -530 0 0 
118 -316 -338 501 -285 -31 207 -517 -534 -531 0 0 
119 -315 -344 502 -285 -33 208 -518 -533 -530 0 0 
120 -318 -344 504 -285 -32 208 -517 -532 -530 0 0 
121 -317 -335 503 -285 -33 206 -517 -532 -529 0 0 
122 -316 -336 502 -284 -33 202 -515 -533 -530 0 0 
123 -319 -338 501 -282 -33 196 -514 -533 -529 0 0 
124 -318 -341 502 -281 -32 196 -515 -534 -529 0 0 
125 -317 -336 501 -282 -32 197 -517 -533 -529 0 0 
126 -317 -335 503 -282 -32 198 -517 -533 -530 0 0 
127 -318 -346 500 -283 -34 201 -517 -533 -530 0 0 
128 -318 -338 501 -283 -34 200 -517 -533 -530 0 0 
129 -319 -344 500 -285 -31 199 -517 -533 -529 0 0 
130 -315 -338 500 -287 -30 202 -517 -533 -530 0 0 
131 -319 -343 500 -289 -29 205 -515 -533 -529 0 0 
132 -319 -342 499 -289 -28 207 -514 -532 -529 0 0 
133 -314 -347 500 -288 -29 205 -515 -532 -530 0 0 
134 -319 -354 502 -289 -30 206 -516 -532 -530 0 0 
135 -318 -344 500 -290 -29 209 -518 -531 -530 0 0 
136 -319 -341 498 -293 -27 213 -517 -530 -531 0 0 
137 -321 -344 499 -293 -27 212 -517 -530 -531 0 0 
138 -319 -347 500 -293 -29 209 -516 -529 -531 0 0 
139 -316 -351 496 -293 -26 206 -517 -530 -532 0 0 
140 -322 -346 499 -296 -25 207 -517 -529 -531 0 0 
141 -322 -339 496 -297 -25 211 -516 -528 -532 0 0 
142 -320 -344 498 -298 -25 214 -515 -528 -532 0 0 
143 -324 -343 497 -301 -25 218 -515 -526 -532 0 0 
144 -323 -349 497 -303 -25 225 -515 -524 -532 0 0 
145 -326 -340 495 -308 -23 235 -513 -521 -531 0 0 
146 -329 -341 496 -314 -12 246 -510 -518 -530 0 0 
147 -331 -344 494 -315 -5 243 -508 -516 -530 0 0 
148 -331 -343 494 -316 4 237 -506 -514 -530 0 0 
149 -332 -347 491 -325 24 238 -507 -512 -533 0 0 
150 -334 -341 491 -329 30 244 -509 -510 -538 0 0 
151 -335 -344 489 -332 34 248 -512 -508 -542 0 0 
152 -333 -340 488 -337 22 248 -512 -504 -546 0 0 
153 -339 -351 486 -342 18 247 -507 -501 -549 0 0 
154 -336 -345 486 -343 22 243 -503 -500 -554 0 0 
155 -341 -345 484 -336 32 225 -505 -501 -557 0 0 
156 -339 -344 481 -336 33 222 -508 -500 -564 0 0 
157 -342 -356 479 -337 36 227 -513 -499 -570 0 0 
158 -340 -367 474 -340 40 242 -518 -494 -578 0 0 
159 -339 -372 470 -342 47 278 -524 -488 -590 0 0 
160 -337 -392 465 -339 57 286 -523 -483 -603 0 0 
161 -330 -401 457 -335 87 280 -526 -484 -618 0 0 
162 -322 -417 449 -324 126 240 -543 -488 -641 0 0 
163 -311 -440 435 -317 111 215 -570 -493 -670 0 0 
164 -298 -465 423 -302 75 190 -595 -493 -697 0 0 
165 -279 -491 411 -263 -49 165 -609 -490 -720 0 0 
166 -263 -512 396 -243 -116 160 -611 -484 -733 0 0 
167 -245 -536 388 -233 -186 153 -600 -484 -741 0 0 
168 -228 -545 379 -156 -334 93 -585 -483 -734 0 0 
169 -207 -562 367 -90 -437 43 -572 -487 -719 0 0 
170 -192 -581 355 -42 -562 -8 -577 -502 -708 0 0 
171 -175 -604 336 -5 -667 -34 -598 -521 -698 0 0 
172 -166 -608 321 -1 -885 -38 -626 -533 -667 0 0 
173 -168 -617 307 -11 -1004 -5 -637 -528 -624 0 0 
174 -181 -609 298 -23 -1137 45 -624 -513 -556 0 0 
175 -207 -591 296 -26 -1346 154 -597 -497 -465 0 0 
176 -249 -564 296 -5 -1382 205 -559 -479 -367 0 0 
177 -306 -520 302 49 -1368 268 -521 -457 -266 0 0 
178 -375 -441 311 180 -1189 342 -467 -408 -142 0 0 
179 -445 -342 319 267 -1032 319 -368 -351 -14 0 0 
180 -508 -218 309 391 -882 219 -250 -301 83 0 0 
181 -558 -85 278 703 -539 -16 -157 -247 156 0 0 
182 -586 56 225 817 -370 -139 -95 -203 204 0 0 
183 -586 180 157 980 -163 -268 -49 -168 232 0 0 
184 -566 267 109 1193 753 -561 -31 -178 223 0 0 
185 -552 295 104 1014 1793 -980 -107 -312 130 0 0 
186 -556 267 126 502 2048 -1553 -327 -503 -138 0 0 
187 -573 187 153 -27 2048 -1911 -653 -593 -550 0 0 
188 -594 85 175 -116 2048 -1256 -851 -631 -903 0 0 
189 -593 -24 191 136 2048 -864 -897 -647 -1095 0 0 
190 -585 -137 191 393 1841 -587 -913 -635 -1172 0 0 
191 -560 -247 179 512 968 -297 -917 -603 -1194 0 0 
192 -526 -338 165 461 784 -245 -880 -564 -1182 0 0 
193 -480 -419 149 411 656 -206 -796 -523 -1160 0 0 
194 -422 -501 136 455 363 -215 -708 -492 -1134 0 0 
195 -355 -558 129 527 255 -239 -633 -482 -1118 0 0 
196 -284 -617 127 636 137 -246 -569 -494 -1112 0 0 
197 -210 -655 121 848 -287 -258 -530 -514 -1102 0 0 
198 -142 -685 106 958 -756 -317 -524 -544 -1081 0 0 
199 -95 -699 83 1063 -1486 -441 -567 -586 -1015 0 0 
200 -74 -690 64 1073 -2047 -525 -637 -624 -888 0 0 
201 -91 -694 64 1087 -2047 -363 -674 -625 -710 0 0 
202 -142 -671 82 1049 -2047 -111 -628 -593 -480 0 0 
203 -227 -628 115 957 -2047 103 -504 -533 -231 0 0 
204 -334 -547 145 889 -1725 285 -367 -444 -1 0 0 
205 -437 -443 165 978 -1253 160 -256 -391 174 0 0 
206 -521 -317 167 1089 -846 -22 -195 -371 281 0 0 
207 -576 -186 160 1072 -119 -328 -180 -367 314 0 0 
208 -604 -61 147 1018 204 -399 -195 -382 286 0 0 
209 -610 33 137 980 562 -413 -219 -416 233 0 0 
210 -606 78 132 526 2048 -340 -286 -471 159 0 0 
211 -602 43 130 -103 2048 -350 -438 -506 -73 0 0 
212 -606 -38 123 -717 2048 -389 -685 -508 -481 0 0 
213 -597 -146 106 -459 2048 -470 -870 -504 -886 0 0 
214 -574 -243 85 12 2048 -571 -930 -523 -1103 0 0 
215 -538 -334 63 239 1780 -598 -921 -545 -1153 0 0 
216 -489 -416 42 219 1127 -463 -876 -538 -1147 0 0 
217 -432 -495 19 225 938 -373 -798 -503 -1142 0 0 
218 -359 -568 4 316 731 -349 -707 -478 -1142 0 0 
219 -276 -626 -6 459 552 -389 -625 -474 -1143 0 0 
220 -190 -662 -13 739 42 -547 -569 -481 -1153 0 0 
221 -112 -687 -23 957 -606 -708 -540 -513 -1142 0 0 
222 -73 -689 -23 1226 -1586 -911 -550 -578 -1048 0 0 
223 -76 -689 2 1613 -2047 -1020 -568 -641 -871 0 0 
224 -133 -665 56 1470 -2047 -723 -486 -671 -615 0 0 
225 -239 -608 109 1514 -2047 -244 -321 -582 -244 0 0 
226 -356 -511 150 1075 -2047 515 -181 -451 105 0 0 
227 -468 -379 169 1128 -1257 378 -107 -370 326 0 0 
228 -547 -229 168 1249 -620 141 -94 -348 437 0 0 
229 -592 -76 154 1339 362 -220 -116 -354 455 0 0 
230 -602 46 141 1243 998 -300 -137 -379 416 0 0 
231 -597 89 140 887 2048 -374 -205 -466 336 0 0 
232 -599 38 135 -726 2048 -430 -396 -501 23 0 0 
233 -600 -52 120 -1158 2048 -397 -721 -475 -554 0 0 
234 -591 -162 111 -939 2048 -491 -894 -502 -982 0 0 
235 -563 -270 93 -408 2048 -581 -872 -531 -1146 0 0 
236 -518 -373 67 330 1730 -292 -813 -511 -1214 0 0 
237 -454 -472 37 437 1323 -185 -783 -466 -1243 0 0 
238 -371 -570 8 574 1104 -148 -729 -420 -1265 0 0 
239 -265 -631 -15 1147 714 -277 -658 -398 -1290 0 0 
240 -148 -678 -49 1592 288 -556 -623 -428 -1320 0 0 
241 -62 -701 -75 2048 -578 -1023 -648 -543 -1315 0 0 
242 -29 -701 -67 2048 -2047 -1943 -713 -676 -1167 0 0 
243 -66 -694 -8 2048 -2047 -1857 -654 -712 -853 0 0 
244 -173 -656 76 2048 -2047 -1312 -387 -595 -412 0 0 
245 -173 -573 140 1994 -2047 -213 -91 -482 46 0 0 
246 -307 -573 140 1994 -2047 -213 -91 -482 46 0 0 
247 -420 -439 180 1905 -1654 -186 33 -441 348 0 0 
248 -516 -301 201 1803 -625 -191 9 -459 451 0 0 
249 -562 -156 209 1140 915 104 -74 -487 438 0 0 
250 -583 -85 210 603 2048 330 -184 -537 374 0 0 
251 -579 -98 196 -211 2048 463 -385 -561 183 0 0 
252 -572 -176 165 -1181 2048 614 -697 -478 -289 0 0 
253 -552 -265 135 -1491 2048 266 -912 -450 -765 0 0 
254 -516 -351 99 -825 2048 -214 -944 -489 -1008 0 0 
255 -469 -444 60 -337 2048 -429 -923 -489 -1115 0 0 
256 -405 -519 18 59 1404 -299 -879 -441 -1147 0 0 
257 -331 -585 -15 276 1006 -319 -793 -409 -1153 0 0 
258 -247 -639 -43 511 703 -413 -715 -403 -1147 0 0 
259 -155 -673 -67 881 175 -473 -667 -404 -1146 0 0 
260 -66 -692 -87 1082 -203 -569 -639 -419 -1144 0 0 
261 0 -694 -96 1342 -714 -756 -624 -458 -1082 0 0 
262 31 -694 -93 1698 -1755 -969 -610 -488 -976 0 0 
263 22 -699 -67 1753 -2047 -935 -551 -494 -796 0 0 
264 -31 -696 -26 1807 -2047 -891 -445 -497 -543 0 0 
265 -118 -675 23 1879 -2047 -885 -327 -522 -255 0 0 
266 -226 -624 73 1690 -1757 -761 -241 -546 -9 0 0 
267 -330 -544 117 1427 -1231 -576 -198 -544 145 0 0 
268 -429 -438 155 1236 -825 -401 -186 -528 227 0 0 
269 -510 -304 183 1152 -103 -114 -168 -505 287 0 0 
270 -564 -159 190 1112 258 111 -131 -482 358 0 0 
271 -583 -40 190 951 805 297 -127 -488 406 0 0 
272 -586 -3 190 -50 2048 273 -226 -521 326 0 0 
273 -583 -44 185 -732 2048 193 -471 -539 -2 0 0 
274 -574 -134 168 -1293 2048 116 -764 -522 -501 0 0 
275 -559 -220 148 -1137 2048 -102 -924 -518 -882 0 0 
276 -528 -318 127 -683 2048 -210 -918 -531 -1053 0 0 
277 -482 -408 93 -358 2021 -176 -870 -513 -1119 0 0 
278 -427 -485 59 -41 1174 -93 -832 -477 -1144 0 0 
279 -358 -555 25 108 943 -95 -776 -436 -1150 0 0 
280 -281 -610 -2 299 741 -162 -714 -414 -1149 0 0 
281 -189 -657 -22 503 559 -265 -665 -413 -1149 0 0 
282 -103 -682 -42 801 232 -425 -628 -421 -1148 0 0 
283 -22 -694 -55 954 -83 -548 -606 -424 -1135 0 0 
284 27 -698 -58 1221 -679 -727 -593 -435 -1061 0 0 
285 37 -706 -46 2048 -2047 -1243 -563 -517 -899 0 0 
286 -9 -695 -3 2048 -2047 -1435 -510 -609 -657 0 0 
287 -110 -671 57 2048 -2047 -1230 -388 -592 -311 0 0 
288 -232 -607 118 1900 -2047 -361 -229 -530 19 0 0 
289 -357 -508 163 1807 -1337 -311 -124 -495 264 0 0 
290 -454 -380 197 1794 -704 -441 -101 -500 392 0 0 
291 -523 -244 219 1538 281 -565 -119 -524 418 0 0 
292 -562 -92 231 1270 680 -393 -141 -516 399 0 0 
293 -575 44 224 970 1023 -112 -126 -492 379 0 0 
294 -565 140 215 108 2048 185 -108 -494 362 0 0 
295 -557 162 220 -416 2048 207 -175 -521 213 0 0 
296 -559 120 228 -949 2048 165 -370 -538 -138 0 0 
297 -564 38 236 -1201 2048 78 -654 -550 -568 0 0 
298 -564 -52 231 -641 2048 -52 -870 -564 -882 0 0 
299 -551 -140 227 -327 1721 -96 -954 -565 -1016 0 0 
300 -537 -214 212 -130 1196 -184 -947 -553 -1028 0 0 
301 -522 -273 199 -71 625 -352 -879 -533 -983 0 0 
302 -504 -312 191 -26 374 -432 -782 -523 -923 0 0 
303 -487 -336 188 21 116 -493 -686 -516 -846 0 0 
304 -483 -348 193 61 -330 -456 -582 -514 -762 0 0 
305 -482 -345 202 84 -479 -384 -486 -519 -679 0 0 
306 -485 -341 213 89 -589 -289 -421 -521 -587 0 0 
307 -491 -318 224 -24 -564 -86 -380 -516 -512 0 0 
308 -504 -300 233 -88 -498 -10 -352 -506 -458 0 0 
309 -506 -274 236 -142 -413 30 -341 -500 -425 0 0 
310 -519 -258 244 -208 -265 62 -344 -501 -410 0 0 
311 -525 -237 245 -228 -204 76 -361 -509 -409 0 0 
312 -531 -221 249 -258 -142 86 -394 -520 -419 0 0 
313 -535 -214 251 -297 -85 93 -433 -529 -442 0 0 
314 -534 -216 249 -352 10 77 -476 -538 -475 0 0 
315 -534 -226 250 -376 32 59 -514 -541 -506 0 0 
316 -531 -229 249 -377 40 53 -536 -545 -532 0 0 
317 -527 -226 252 -355 13 18 -542 -548 -544 0 0 
318 -525 -236 252 -348 8 4 -541 -551 -547 0 0 
319 -526 -236 253 -343 6 -12 -540 -555 -547 0 0 
320 -519 -238 255 -334 3 -23 -535 -557 -543 0 0 
321 -521 -240 259 -346 -2 -4 -527 -555 -536 0 0 
322 -525 -236 262 -362 -2 25 -517 -551 -528 0 0 
323 -520 -230 261 -375 10 56 -509 -545 -522 0 0 
324 -522 -230 264 -378 16 57 -501 -540 -516 0 0 
325 -525 -225 268 -377 22 49 -494 -539 -512 0 0 
326 -526 -225 269 -372 26 41 -489 -541 -509 0 0 
327 -525 -218 272 -379 17 50 -490 -542 -509 0 0 
328 -525 -224 270 -381 16 58 -501 -545 -512 0 0 
329 -523 -227 273 -375 28 54 -517 -549 -520 0 0 
330 -524 -223 275 -374 48 40 -530 -553 -531 0 0 
331 -517 -231 277 -374 46 35 -539 -556 -539 0 0 
332 -516 -234 274 -370 40 33 -542 -560 -544 0 0 
333 -515 -237 281 -357 27 27 -545 -565 -546 0 0 
334 -511 -248 281 -349 20 27 -549 -570 -549 0 0 
335 -507 -249 283 -348 8 39 -552 -569 -553 0 0 
336 -503 -260 284 -372 -11 91 -554 -563 -558 0 0 
337 -500 -265 283 -372 -19 108 -553 -555 -563 0 0 
338 -499 -274 284 -370 -34 119 -548 -546 -562 0 0 
339 -499 -266 285 -356 -59 126 -537 -536 -558 0 0 
340 -498 -267 285 -352 -61 114 -523 -529 -549 0 0 
341 -499 -269 284 -349 -61 99 -512 -525 -539 0 0 
342 -497 -265 280 -340 -50 80 -503 -524 -533 0 0 
343 -497 -268 283 -331 -41 36 -501 -526 -529 0 0 
344 -501 -269 282 -328 -34 20 -502 -529 -527 0 0 
345 -496 -268 286 -329 -27 13 -504 -534 -527 0 0 
346 -499 -265 285 -332 -12 10 -506 -538 -528 0 0 
347 -501 -265 287 -333 -7 12 -508 -541 -529 0 0 
348 -498 -262 288 -334 -7 20 -508 -543 -530 0 0 
349 -497 -268 289 -342 -12 54 -507 -541 -531 0 0 
350 -498 -268 291 -346 -8 67 -508 -539 -531 0 0 
351 -498 -263 292 -344 -8 78 -510 -539 -531 0 0 
352 -495 -269 290 -353 -13 89 -514 -537 -532 0 0 
353 -492 -273 288 -348 -14 93 -518 -537 -533 0 0 
354 -496 -272 288 -347 -13 87 -522 -536 -536 0 0 
355 -495 -271 290 -343 -11 65 -526 -537 -539 0 0 
356 -490 -282 289 -341 -12 56 -529 -539 -541 0 0 
357 -494 -279 290 -342 -18 58 -529 -537 -543 0 0 
358 -492 -279 290 -347 -21 62 -522 -535 -542 0 0 
359 -490 -281 291 -344 -13 49 -517 -535 -540 0 0 
360 -491 -280 292 -338 -14 39 -514 -536 -539 0 0 
361 -490 -284 291 -333 -17 33 -513 -538 -538 0 0 
362 -490 -286 291 -330 -25 42 -515 -539 -538 0 0 
363 -487 -289 291 -332 -33 53 -515 -538 -537 0 0 
364 -489 -287 291 -333 -39 67 -515 -534 -536 0 0 
365 -487 -287 292 -333 -37 73 -514 -534 -535 0 0 
366 -485 -291 292 -332 -34 68 -514 -533 -534 0 0 
367 -489 -288 293 -331 -33 63 -515 -534 -533 0 0 
368 -492 -290 291 -334 -33 61 -518 -533 -532 0 0 
369 -487 -282 291 -339 -32 61 -519 -533 -530 0 0 
370 -488 -289 291 -340 -30 59 -518 -532 -528 0 0 
371 -489 -295 290 -333 -24 44 -518 -534 -529 0 0 
372 -487 -294 291 -331 -29 45 -518 -533 -529 0 0 
373 -486 -294 291 -335 -38 51 -514 -534 -531 0 0 
374 -485 -286 291 -336 -36 52 -511 -534 -530 0 0 
375 -486 -289 291 -329 -24 35 -511 -536 -530 0 0 
376 -486 -286 293 -330 -21 35 -512 -537 -530 0 0 
377 -487 -288 292 -335 -19 43 -514 -536 -530 0 0 
378 -486 -280 292 -340 -26 63 -514 -535 -530 0 0 
379 -487 -283 292 -338 -29 65 -516 -534 -530 0 0 
380 -488 -286 293 -337 -28 64 -516 -534 -531 0 0 
381 -486 -290 294 -337 -24 59 -518 -534 -531 0 0 
382 -488 -287 290 -338 -23 59 -518 -534 -531 0 0 
383 -487 -287 291 -340 -25 63 -518 -533 -530 0 0 
384 -489 -285 293 -341 -26 62 -516 -532 -529 0 0 
385 -489 -293 293 -340 -24 56 -515 -532 -528 0 0 
386 -487 -288 293 -338 -22 50 -513 -533 -528 0 0 
387 -489 -294 293 -337 -19 40 -511 -533 -528 0 0 
388 -492 -287 292 -335 -17 37 -510 -533 -528 0 0 
389 -489 -289 292 -333 -16 38 -511 -536 -529 0 0 
390 -488 -287 292 -334 -18 42 -514 -535 -530 0 0 
391 -488 -292 293 -338 -25 58 -513 -534 -531 0 0 
392 -488 -283 292 -340 -26 59 -511 -533 -530 0 0 
393 -486 -292 293 -340 -23 58 -509 -533 -529 0 0 
394 -487 -291 292 -335 -20 55 -511 -533 -530 0 0 
395 -486 -287 293 -336 -22 57 -513 -533 -530 0 0 
396 -490 -291 295 -338 -24 61 -514 -533 -530 0 0 
397 -486 -287 292 -343 -29 64 -514 -532 -530 0 0 
398 -485 -294 292 -338 -26 55 -513 -533 -530 0 0 
399 -489 -286 294 -333 -24 44 -515 -535 -530 0 0 
400 -488 -288 294 -335 -26 45 -514 -535 -531 0 0 
401 -489 -287 294 -338 -25 51 -512 -535 -530 0 0 
402 -487 -284 296 -337 -24 53 -511 -535 -529 0 0 
403 -487 -288 295 -335 -22 53 -511 -535 -529 0 0 
404 -490 -284 296 -336 -24 60 -512 -536 -529 0 0 
405 -488 -284 294 -338 -26 68 -514 -535 -530 0 0 
406 -485 -295 294 -340 -27 73 -515 -534 -531 0 0 
407 -487 -284 296 -340 -26 70 -517 -533 -530 0 0 
408 -489 -287 294 -339 -24 66 -517 -533 -530 0 0 
409 -491 -295 294 -339 -24 62 -518 -533 -531 0 0 
410 -488 -287 296 -341 -34 66 -518 -531 -532 0 0 
411 -484 -289 295 -341 -36 67 -514 -529 -531 0 0 
412 -485 -292 293 -341 -32 60 -509 -529 -529 0 0 
413 -489 -289 295 -333 -29 41 -507 -531 -530 0 0 
414 -488 -294 295 -332 -30 39 -508 -532 -530 0 0 
415 -491 -290 298 -333 -31 42 -509 -533 -530 0 0 
416 -490 -286 294 -334 -30 48 -511 -533 -530 0 0 
417 -489 -286 296 -335 -27 52 -513 -534 -530 0 0 
418 -490 -286 297 -338 -26 59 -515 -534 -530 0 0 
419 -488 -286 295 -342 -26 64 -516 -534 -530 0 0 
420 -484 -287 294 -339 -26 56 -519 -535 -530 0 0 
421 -488 -293 291 -335 -25 50 -522 -536 -531 0 0 
422 -488 -290 295 -335 -24 48 -523 -536 -533 0 0 
423 -486 -289 293 -338 -22 51 -522 -537 -534 0 0 
424 -487 -294 296 -337 -23 51 -522 -536 -534 0 0 
425 -488 -293 293 -336 -26 52 -521 -536 -534 0 0 
426 -483 -298 295 -340 -25 64 -519 -534 -534 0 0 
427 -485 -295 292 -342 -22 66 -518 -533 -533 0 0 
428 -482 -297 294 -341 -24 66 -517 -532 -534 0 0 
429 -487 -294 292 -340 -28 65 -516 -532 -532 0 0 
430 -486 -297 292 -339 -27 62 -516 -531 -532 0 0 
431 -488 -294 292 -337 -28 58 -516 -531 -533 0 0 
432 -484 -294 292 -333 -33 51 -517 -531 -534 0 0 
433 -485 -298 292 -332 -35 48 -518 -533 -533 0 0 
434 -486 -296 292 -332 -36 45 -517 -533 -533 0 0 
435 -484 -299 288 -330 -34 40 -517 -535 -532 0 0 
436 -487 -299 292 -328 -30 34 -518 -536 -532 0 0 
437 -484 -302 294 -329 -30 38 -518 -537 -532 0 0 
438 -485 -299 291 -331 -31 46 -519 -537 -531 0 0 
439 -484 -307 290 -333 -37 58 -519 -536 -531 0 0 
440 -484 -301 289 -332 -35 55 -518 -536 -530 0 0 
441 -484 -300 290 -329 -30 49 -520 -537 -530 0 0 
442 -482 -296 289 -331 -25 52 -522 -536 -530 0 0 
443 -484 -296 290 -333 -31 62 -521 -535 -531 0 0 
444 -484 -299 291 -337 -33 70 -517 -532 -531 0 0 
445 -483 -298 290 -336 -28 61 -513 -531 -529 0 0 
446 -483 -299 291 -332 -27 52 -513 -533 -529 0 0 
447 -486 -297 291 -330 -27 47 -514 -534 -529 0 0 
448 -486 -297 290 -331 -29 45 -516 -535 -530 0 0 
449 -482 -294 292 -330 -29 43 -515 -535 -530 0 0 
450 -483 -298 290 -329 -27 39 -515 -537 -530 0 0 
451 -483 -297 291 -327 -26 35 -515 -538 -530 0 0 
452 -483 -301 293 -329 -27 42 -516 -538 -530 0 0 
453 -484 -300 294 -330 -28 49 -518 -538 -530 0 0 
454 -484 -302 290 -331 -30 55 -519 -539 -530 0 0 
455 -482 -306 291 -335 -30 69 -522 -537 -530 0 0 
456 -481 -303 291 -338 -32 71 -522 -537 -530 0 0 
457 -482 -308 292 -339 -34 71 -521 -535 -530 0 0 
458 -484 -304 289 -338 -36 61 -518 -534 -531 0 0 
459 -481 -298 290 -334 -32 52 -518 -536 -530 0 0 
460 -484 -310 290 -333 -30 47 -518 -537 -530 0 0 
461 -483 -306 293 -338 -32 56 -517 -536 -530 0 0 
462 -482 -305 291 -340 -32 61 -516 -535 -529 0 0 
463 -481 -300 293 -338 -34 63 -515 -534 -529 0 0 
464 -478 -304 294 -337 -35 69 -515 -535 -529 0 0 
465 -483 -299 291 -339 -36 71 -515 -533 -529 0 0 
466 -481 -309 292 -339 -37 70 -516 -532 -529 0 0 
467 -481 -305 293 -338 -36 66 -517 -533 -529 0 0 
468 -484 -303 292 -337 -32 58 -517 -533 -529 0 0 
469 -481 -302 290 -336 -31 55 -519 -535 -530 0 0 
470 -483 -305 292 -337 -32 54 -520 -534 -530 0 0 
471 -478 -303 290 -339 -37 60 -521 -534 -531 0 0 
472 -483 -304 290 -340 -36 61 -519 -534 -530 0 0 
473 -478 -304 288 -334 -36 56 -518 -533 -529 0 0 
474 -480 -306 289 -339 -35 46 -516 -535 -526 0 0 
475 -482 -303 290 -337 -38 49 -515 -535 -529 0 0 
476 -483 -306 291 -333 -36 49 -518 -535 -530 0 0 
477 -484 -301 288 -330 -34 47 -521 -536 -530 0 0 
478 -481 -302 290 -335 -35 57 -520 -535 -530 0 0 
479 -482 -300 290 -338 -33 62 -519 -534 -528 0 0 
480 -482 -301 289 -337 -26 56 -518 -534 -528 0 0 
481 -481 -304 290 -337 -26 54 -517 -534 -528 0 0 
482 -484 -303 289 -337 -25 55 -516 -534 -528 0 0 
483 -484 -298 291 -338 -23 57 -516 -534 -529 0 0 
484 -483 -306 289 -338 -22 57 -518 -534 -530 0 0 
485 -481 -309 289 -337 -23 55 -518 -535 -530 0 0 
486 -482 -309 290 -336 -23 53 -518 -536 -530 0 0 
487 -480 -311 288 -335 -25 49 -519 -536 -531 0 0 
488 -481 -307 290 -334 -27 49 -519 -536 -531 0 0 
489 -481 -304 289 -333 -30 52 -519 -536 -531 0 0 
490 -480 -310 290 -330 -31 52 -519 -535 -532 0 0 
491 -477 -313 288 -331 -34 55 -519 -536 -530 0 0 
492 -480 -307 287 -331 -37 58 -520 -534 -530 0 0 
493 -482 -309 288 -333 -47 66 -520 -533 -530 0 0 
494 -479 -308 287 -332 -43 65 -517 -531 -529 0 0 
495 -482 -308 289 -331 -36 58 -514 -531 -528 0 0 
496 -483 -312 289 -330 -33 45 -513 -532 -528 0 0 
497 -484 -308 289 -330 -34 44 -513 -532 -528 0 0 
498 -483 -307 287 -330 -34 44 -514 -534 -528 0 0 
499 -482 -305 289 -330 -33 44 -517 -535 -528 0 0 
500 -482 -313 289 -332 -31 47 -518 -536 -530 0 0 
501 -481 -312 289 -334 -31 50 -521 -537 -530 0 0 
502 -482 -309 287 -336 -30 52 -522 -538 -530 0 0 
503 -481 -309 288 -337 -33 54 -522 -538 -530 0 0 
504 -480 -314 288 -333 -37 56 -520 -537 -529 0 0 
505 -481 -308 288 -336 -38 56 -518 -537 -526 0 0 
506 -483 -309 288 -342 -32 65 -518 -535 -528 0 0 
507 -482 -310 286 -341 -32 67 -517 -534 -529 0 0 
508 -480 -307 286 -338 -34 64 -516 -534 -529 0 0 
509 -481 -311 287 -338 -38 66 -514 -533 -529 0 0 
510 -483 -311 286 -338 -36 63 -514 -533 -529 0 0 
511 -479 -306 287 -336 -35 58 -515 -533 -530 0 0 
512 -478 -311 288 -336 -37 57 -515 -533 -529 0 0 
513 -476 -315 287 -336 -36 58 -515 -532 -529 0 0 
514 -483 -313 288 -336 -36 58 -514 -532 -529 0 0 
515 -482 -316 288 -337 -36 62 -513 -533 -529 0 0 
516 -482 -318 288 -338 -35 65 -514 -532 -528 0 0 
517 -482 -310 287 -338 -33 63 -515 -531 -528 0 0 
518 -484 -305 287 -339 -31 58 -515 -532 -528 0 0 
519 -483 -306 285 -335 -29 48 -516 -533 -528 0 0 
520 -483 -305 286 -334 -30 45 -518 -535 -529 0 0 
521 -482 -305 287 -334 -31 46 -519 -534 -530 0 0 
522 -483 -308 286 -334 -29 48 -519 -534 -530 0 0 
523 -479 -309 286 -334 -29 48 -518 -535 -530 0 0 
524 -482 -306 286 -333 -31 49 -517 -535 -530 0 0 
525 -483 -311 289 -334 -33 56 -517 -535 -530 0 0 
526 -482 -305 287 -335 -31 57 -516 -534 -529 0 0 
527 -482 -309 286 -334 -28 54 -516 -534 -530 0 0 
528 -484 -302 287 -334 -27 52 -516 -534 -530 0 0 
529 -484 -312 286 -334 -36 59 -517 -533 -531 0 0 
530 -481 -309 287 -334 -38 63 -516 -532 -530 0 0 
531 -484 -305 285 -335 -36 62 -514 -531 -529 0 0 
532 -482 -309 284 -332 -32 48 -513 -533 -529 0 0 
533 -481 -305 287 -330 -32 42 -513 -533 -528 0 0 
534 -481 -312 287 -328 -31 37 -514 -535 -528 0 0 
535 -483 -308 286 -329 -32 41 -515 -536 -528 0 0 
536 -481 -303 285 -332 -37 49 -517 -536 -529 0 0 
537 -483 -306 286 -333 -38 54 -517 -535 -529 0 0 
538 -480 -305 286 -333 -29 53 -517 -536 -529 0 0 
539 -480 -309 285 -335 -28 54 -516 -536 -528 0 0 
540 -483 -304 287 -336 -27 55 -516 -536 -529 0 0 
541 -483 -313 286 -339 -33 62 -517 -535 -529 0 0 
542 -483 -309 288 -341 -35 70 -517 -534 -530 0 0 
543 -485 -311 286 -341 -33 73 -518 -534 -530 0 0 
544 -481 -310 286 -342 -31 73 -518 -532 -529 0 0 
545 -482 -304 285 -341 -34 64 -516 -530 -529 0 0 
546 -483 -310 286 -339 -34 57 -514 -530 -529 0 0 
547 -483 -310 286 -336 -31 47 -512 -533 -529 0 0 
548 -481 -309 285 -330 -32 37 -513 -534 -529 0 0 
549 -482 -303 285 -330 -35 39 -513 -534 -530 0 0 
550 -481 -311 285 -330 -38 43 -514 -535 -530 0 0 
551 -483 -301 286 -330 -34 48 -515 -535 -530 0 0 
552 -485 -306 287 -331 -32 49 -514 -535 -529 0 0 
553 -480 -310 287 -333 -30 52 -515 -535 -529 0 0 
554 -484 -309 287 -335 -29 59 -515 -535 -528 0 0 
555 -479 -310 284 -337 -29 61 -518 -535 -529 0 0 
556 -480 -305 285 -341 -30 61 -518 -535 -528 0 0 
557 -484 -313 284 -340 -32 60 -518 -534 -529 0 0 
558 -484 -305 286 -337 -29 55 -518 -535 -530 0 0 
559 -482 -301 285 -336 -29 51 -517 -535 -531 0 0 
560 -479 -305 287 -335 -31 51 -517 -535 -530 0 0 
561 -481 -303 285 -335 -36 55 -516 -535 -531 0 0 
562 -483 -304 285 -335 -34 56 -516 -534 -530 0 0 
563 -484 -307 286 -336 -34 58 -514 -534 -530 0 0 
564 -482 -305 285 -338 -33 62 -513 -533 -528 0 0 
565 -483 -305 290 -338 -32 62 -513 -532 -528 0 0 
566 -482 -312 285 -339 -30 64 -513 -532 -528 0 0 
567 -485 -309 284 -340 -28 63 -513 -531 -529 0 0 
568 -483 -305 286 -339 -27 59 -514 -532 -529 0 0 
569 -483 -306 285 -338 -29 54 -514 -531 -529 0 0 
570 -482 -304 288 -333 -33 49 -515 -533 -530 0 0 
571 -483 -310 286 -333 -33 47 -516 -533 -530 0 0 
572 -482 -301 286 -333 -32 47 -516 -533 -530 0 0 
573 -481 -304 284 -332 -35 48 -516 -535 -529 0 0 
574 -485 -305 288 -331 -34 47 -517 -536 -529 0 0 
575 -484 -311 284 -332 -33 46 -518 -536 -530 0 0 
576 -482 -305 284 -332 -31 46 -519 -537 -530 0 0 
577 -481 -309 285 -335 -31 55 -520 -535 -531 0 0 
578 -483 -304 287 -339 -33 64 -518 -534 -530 0 0 

% Total Sample Count = 578.
% Sample Count Used for mean/std calculations = 578.

%                                  MagX     MagY     MagZ     AccX     AccY     AccZ     % GyroR   GyroP    GyroY  LButton  RButton
% Means                      : -413.000 -326.000  308.000  -98.000   12.000    3.000 -515.000 -522.000 -528.000    0.000    0.000 
% Standard Deviations        :   48.493      NaN      NaN   71.157      NaN   44.136   76.003   47.474      NaN    0.000    0.000 
% Maximums                   :       37      295      507     2048     2048      614       33     -168      455        0        0 
% Minimums                   :     -610     -706      -96    -1491    -2047    -1943     -954     -712    -1320        0        0 
% Range (Maximums - Minimums):      647     1001      603     3539     4095     2557      987      544     1775        0        0 
